participant_private_id,trial_number,reaction_time,correct,category_cue,eventno,pairtype
2069369,3,3771.3650000005146,0,OBJECT,25,AO
2069369,4,4168.744999995397,0,ANIMAL,42,LA
2069369,5,3407.405000005383,1,OBJECT,49,AO
2069369,6,5631.939999999304,0,LOCATION,11,OL
2069369,7,2479.700000003504,1,OBJECT,13,AO
2069369,8,5528.194999998959,1,LOCATION,26,OL
2069369,9,1953.4199999980046,1,OBJECT,4,AO
2069369,10,5159.200000001874,1,ANIMAL,24,LA
2069369,11,1518.1700000030105,1,OBJECT,43,AO
2069369,12,5999.832999999999,miss,ANIMAL,45,LA
2069369,13,1983.0549999969662,1,OBJECT,37,AO
2069369,14,4321.770000002289,0,ANIMAL,18,LA
2069369,15,3695.9099999949103,1,ANIMAL,9,LA
2069369,16,3145.1300000044284,1,ANIMAL,3,LA
2069369,17,3896.5100000059465,0,OBJECT,28,AO
2069369,18,4464.045000000624,0,ANIMAL,30,LA
2069369,19,1325.700000001234,1,OBJECT,10,AO
2069369,20,2797.1550000002026,1,LOCATION,2,OL
2069369,21,2096.209999996063,1,ANIMAL,12,LA
2069369,22,4521.215000000666,1,LOCATION,44,OL
2069369,23,4295.11499999353,0,LOCATION,35,OL
2069369,24,5123.939999997674,0,LOCATION,29,OL
2069369,25,3408.7799999979325,1,OBJECT,16,AO
2069369,26,3239.9050000021816,1,LOCATION,14,OL
2069369,27,4457.244999997783,0,ANIMAL,51,LA
2069369,28,5429.615000000922,0,LOCATION,47,OL
2069369,29,4274.870000001101,1,LOCATION,8,OL
2069369,30,5638.175000000047,0,LOCATION,23,OL
2069369,31,1780.2450000017416,1,OBJECT,52,AO
2069369,32,5123.060000005353,1,OBJECT,46,AO
2069369,33,3522.5550000031944,1,LOCATION,17,OL
2069369,34,4111.030000000028,1,OBJECT,22,AO
2069369,35,1217.2599999976228,1,OBJECT,1,AO
2069369,36,2576.2050000048475,1,OBJECT,40,AO
2069369,37,4929.915000000619,1,ANIMAL,36,LA
2069369,38,4218.635000004724,1,LOCATION,20,OL
2069369,39,3248.9999999961583,1,OBJECT,19,AO
2069369,40,1289.5549999957439,1,ANIMAL,48,LA
2069369,41,3043.7850000016624,0,LOCATION,5,OL
2069369,42,4747.105000002193,1,ANIMAL,54,LA
2069369,43,4084.5400000034715,0,LOCATION,50,OL
2069369,44,1783.1500000029337,1,OBJECT,7,AO
2069369,45,4891.190000002098,0,ANIMAL,27,LA
2069369,46,3607.8550000020186,0,ANIMAL,15,LA
2069369,47,3554.214999996475,0,ANIMAL,6,LA
2069369,48,3133.589999997639,0,ANIMAL,33,LA
2069369,49,4173.610000005283,0,OBJECT,34,AO
2069369,50,4427.145000001474,1,ANIMAL,39,LA
2069369,51,2516.26500000566,0,ANIMAL,21,LA
2069369,52,4086.9999999995343,0,LOCATION,38,OL
2069369,53,3968.9500000022235,0,LOCATION,53,OL
2069369,54,4152.8049999978975,1,LOCATION,41,OL
2069369,55,4624.439999999595,1,OBJECT,31,AO
2069369,56,4221.175000006042,0,LOCATION,32,OL
2069369,57,2963.8749999940046,0,ANIMAL,4,LA
2069369,58,1995.954999998503,1,OBJECT,2,AO
2069369,59,1687.2399999992922,0,ANIMAL,34,LA
2069369,60,2341.050000002724,0,OBJECT,20,AO
2069369,61,2941.270000002987,1,LOCATION,30,OL
2069369,62,2944.3500000052154,0,ANIMAL,28,LA
2069369,63,1925.5149999953574,1,ANIMAL,49,LA
2069369,64,3744.0800000040326,1,OBJECT,5,AO
2069369,65,3248.9199999981793,1,OBJECT,14,AO
2069369,66,2798.6000000018976,1,ANIMAL,13,LA
2069369,67,2575.590000000375,1,OBJECT,47,AO
2069369,68,3475.640000004205,0,ANIMAL,25,LA
2069369,69,4122.320000002219,1,LOCATION,21,OL
2069369,70,2731.064999999944,0,OBJECT,23,AO
2069369,71,3740.7400000010966,0,LOCATION,12,OL
2069369,72,3891.2149999960093,1,ANIMAL,22,LA
2069369,73,2226.7050000009476,1,ANIMAL,52,LA
2069369,74,4789.304999998421,1,OBJECT,29,AO
2069369,75,2955.2249999978812,0,OBJECT,32,AO
2069369,76,2022.3949999999604,1,LOCATION,15,OL
2069369,77,4382.029999993392,0,OBJECT,41,AO
2069369,78,3641.3099999990663,1,OBJECT,53,AO
2069369,79,4708.745000003546,1,LOCATION,48,OL
2069369,80,3606.2799999999697,0,ANIMAL,40,LA
2069369,81,2967.189999995753,0,ANIMAL,31,LA
2069369,82,2615.1350000000093,1,OBJECT,50,AO
2069369,83,3565.130000002682,0,OBJECT,11,AO
2069369,84,2836.0950000060257,1,LOCATION,33,OL
2069369,85,4573.104999995849,0,ANIMAL,19,LA
2069369,86,4250.400000004447,0,LOCATION,6,OL
2069369,87,2743.2499999995343,0,ANIMAL,1,LA
2069369,88,4579.104999997071,0,LOCATION,42,OL
2069369,89,3728.7500000020373,1,OBJECT,26,AO
2069369,90,1962.4899999980698,1,ANIMAL,7,LA
2069369,91,3732.320000002801,1,LOCATION,24,OL
2069369,92,3502.599999999802,0,LOCATION,27,OL
2069369,93,4349.515000001702,1,LOCATION,36,OL
2069369,94,3385.0600000005215,1,LOCATION,3,OL
2069369,95,1490.9550000011222,1,ANIMAL,10,LA
2069369,96,2653.2249999945634,1,OBJECT,8,AO
2069369,97,3614.6149999985937,1,OBJECT,17,AO
2069369,98,2547.4099999992177,1,LOCATION,51,OL
2069369,99,3628.454999998212,0,LOCATION,18,OL
2069369,100,2153.025000006892,1,OBJECT,38,AO
2069369,101,3138.889999994717,0,ANIMAL,37,LA
2069369,102,2350.350000000617,1,LOCATION,54,OL
2069369,103,4828.844999996363,1,LOCATION,45,OL
2069369,104,3743.445000000065,0,LOCATION,9,OL
2069369,105,1367.1849999955157,1,ANIMAL,43,LA
2069369,106,3262.814999994589,1,OBJECT,44,AO
2069369,107,2788.7450000052922,1,OBJECT,35,AO
2069369,108,3351.669999996375,0,LOCATION,39,OL
2069369,109,2014.2899999991641,1,ANIMAL,46,LA
2069369,110,1714.2900000035297,1,ANIMAL,16,LA
2069369,111,1054.7000000005937,1,OBJECT,39,AO
2069369,112,2241.555000000517,1,ANIMAL,41,LA
2069369,113,3245.179999998072,0,ANIMAL,35,LA
2069369,114,2340.604999997595,1,LOCATION,7,OL
2069369,115,2437.5199999994948,1,LOCATION,34,OL
2069369,116,3841.1449999985052,1,LOCATION,25,OL
2069369,117,2377.250000005006,1,ANIMAL,50,LA
2069369,118,3857.3899999973946,1,OBJECT,15,AO
2069369,119,1860.5850000021746,1,ANIMAL,2,LA
2069369,120,3368.029999997816,0,ANIMAL,26,LA
2069369,121,1641.4099999965401,1,LOCATION,13,OL
2069369,122,1919.2799999945564,1,LOCATION,28,OL
2069369,123,1098.6499999999069,1,LOCATION,43,OL
2069369,124,2387.4550000038,0,OBJECT,33,AO
2069369,125,3007.749999996973,1,ANIMAL,23,LA
2069369,126,2019.4199999968987,1,OBJECT,6,AO
2069369,127,2157.0599999977276,1,LOCATION,16,OL
2069369,128,4264.570000006701,1,ANIMAL,32,LA
2069369,129,1660.5100000015227,1,ANIMAL,47,LA
2069369,130,2124.459999999148,1,OBJECT,42,AO
2069369,131,4208.879999998375,0,LOCATION,31,OL
2069369,132,1503.094999999972,1,OBJECT,9,AO
2069369,133,2512.945000002277,1,LOCATION,40,OL
2069369,134,1396.7149999954272,1,LOCATION,10,OL
2069369,135,2567.4200000066776,0,OBJECT,27,AO
2069369,136,3643.0550000004005,1,LOCATION,4,OL
2069369,137,1249.1900000022724,1,ANIMAL,8,LA
2069369,138,4230.009999999311,0,LOCATION,1,OL
2069369,139,2426.344999999972,1,OBJECT,48,AO
2069369,140,3524.7500000040745,0,ANIMAL,38,LA
2069369,141,2819.0800000012387,0,LOCATION,37,OL
2069369,142,2662.6550000001444,0,OBJECT,24,AO
2069369,143,1710.865000000922,0,OBJECT,3,AO
2069369,144,2417.6900000020396,1,ANIMAL,17,LA
2069369,145,3754.854999999283,1,ANIMAL,11,LA
2069369,146,3690.164999999921,1,ANIMAL,44,LA
2069369,147,2588.994999998249,1,ANIMAL,14,LA
2069369,148,1160.4549999975134,1,ANIMAL,5,LA
2069369,149,2435.384999997099,1,OBJECT,18,AO
2069369,150,3999.9899999966146,1,ANIMAL,29,LA
2069369,151,2267.339999998454,1,LOCATION,52,OL
2069369,152,4116.654999998049,0,LOCATION,19,OL
2069369,153,3026.150000005029,0,OBJECT,30,AO
2069369,154,1816.1200000031386,1,LOCATION,49,OL
2069369,155,3660.2100000018254,1,LOCATION,22,OL
2069369,156,2071.989999996731,0,OBJECT,45,AO
2069369,157,1711.415000005276,1,LOCATION,46,OL
2069369,158,4377.204999997048,0,OBJECT,21,AO
2069369,159,3652.874999999767,0,ANIMAL,20,LA
2069369,160,4482.09499999939,0,ANIMAL,53,LA
2069369,161,2449.8249999961117,0,OBJECT,51,AO
2069369,162,2347.6599999994505,1,OBJECT,54,AO
2069369,163,3645.159999999916,1,OBJECT,12,AO
2069369,164,2668.084999997518,1,OBJECT,36,AO
2069369,165,1647.400000001653,1,ANIMAL,41,OA
2069369,166,2117.1049999975367,1,ANIMAL,26,OA
2069369,167,1464.4049999987474,1,ANIMAL,2,OA
2069369,168,3268.949999997858,0,OBJECT,6,LO
2069369,169,2412.7200000003213,0,OBJECT,12,LO
2069369,170,2135.835000000894,1,ANIMAL,5,OA
2069369,171,1119.4499999983236,1,OBJECT,48,LO
2069369,172,1317.4250000010943,1,LOCATION,16,AL
2069369,173,1881.4950000015087,1,ANIMAL,38,OA
2069369,174,1725.3700000001118,0,ANIMAL,17,OA
2069369,175,1718.3149999983143,1,OBJECT,9,LO
2069369,176,1275.724999999511,1,ANIMAL,11,OA
2069369,177,2908.725000001141,0,LOCATION,1,AL
2069369,178,2081.720000001951,1,OBJECT,15,LO
2069369,179,1195.865000001504,1,LOCATION,7,AL
2069369,180,3282.115000001737,1,ANIMAL,29,OA
2069369,181,1506.0099999973318,1,OBJECT,51,LO
2069369,182,3418.1250000038417,0,ANIMAL,44,OA
2069369,183,4277.949999996112,0,OBJECT,27,LO
2069369,184,3439.8950000032783,0,OBJECT,3,LO
2069369,185,2065.0349999996834,1,LOCATION,49,AL
2069369,186,2964.52500000305,1,OBJECT,24,LO
2069369,187,2921.9500000036787,1,LOCATION,19,AL
2069369,188,1664.214999997057,1,LOCATION,43,AL
2069369,189,1306.0550000009825,1,ANIMAL,50,OA
2069369,190,2489.00499999593,1,LOCATION,4,AL
2069369,191,1861.6150000016205,1,OBJECT,30,LO
2069369,192,2893.3949999992037,1,LOCATION,22,AL
2069369,193,1395.8599999969592,1,LOCATION,46,AL
2069369,194,2325.880000003963,1,ANIMAL,20,OA
2069369,195,3210.4000000035157,1,OBJECT,42,LO
2069369,196,1443.005000000936,1,ANIMAL,47,OA
2069369,197,1844.6200000036042,0,ANIMAL,23,OA
2069369,198,1775.114999996731,0,ANIMAL,32,OA
2069369,199,2858.9899999934714,1,LOCATION,25,AL
2069369,200,3127.6350000043167,1,LOCATION,31,AL
2069369,201,3086.6100000056904,1,OBJECT,36,LO
2069369,202,1791.6249999981374,1,OBJECT,33,LO
2069369,203,3603.644999995595,0,OBJECT,18,LO
2069369,204,3131.1249999998836,1,LOCATION,40,AL
2069369,205,1417.249999998603,1,ANIMAL,14,OA
2069369,206,3314.035000003176,0,ANIMAL,35,OA
2069369,207,3189.4499999979744,1,ANIMAL,53,OA
2069369,208,2309.535000000382,1,LOCATION,13,AL
2069369,209,2573.7150000059046,1,OBJECT,54,LO
2069369,210,1383.5000000036089,1,OBJECT,45,LO
2069369,211,2481.8749999976717,1,ANIMAL,8,OA
2069369,212,2401.559999998426,0,LOCATION,28,AL
2069369,213,2769.739999996149,1,OBJECT,21,LO
2069369,214,2906.7700000014156,0,LOCATION,37,AL
2069369,215,3983.509999998263,1,LOCATION,34,AL
2069369,216,2094.27500000305,1,LOCATION,52,AL
2069369,217,2198.190000002738,0,OBJECT,39,LO
2069369,218,1215.0899999979883,1,LOCATION,10,AL
2069369,219,1968.394999996177,1,OBJECT,34,LO
2069369,220,3307.779999995604,0,ANIMAL,27,OA
2069369,221,2569.244999998831,0,LOCATION,26,AL
2069369,222,2184.7300000009127,1,OBJECT,19,LO
2069369,223,3073.2300000017276,1,ANIMAL,54,OA
2069369,224,3674.4550000003073,1,LOCATION,2,AL
2069369,225,3156.5400000035297,0,ANIMAL,21,OA
2069369,226,2207.95999999973,1,LOCATION,47,AL
2069369,227,2356.8200000009965,0,LOCATION,53,AL
2069369,228,1802.5049999996554,1,ANIMAL,3,OA
2069369,229,1534.6500000015367,1,LOCATION,8,AL
2069369,230,2928.154999994207,0,LOCATION,11,AL
2069369,231,3229.774999999674,1,ANIMAL,15,OA
2069369,232,2806.030000007013,1,LOCATION,32,AL
2069369,233,1512.8100000001723,1,OBJECT,43,LO
2069369,234,3580.710000001942,1,ANIMAL,42,OA
2069369,235,2001.575000002049,1,ANIMAL,12,OA
2069369,236,1075.0250000054948,1,ANIMAL,39,OA
2069369,237,2177.8449999983422,0,OBJECT,31,LO
2069369,238,1872.6549999990966,0,LOCATION,20,AL
2069369,239,2148.7649999981513,1,OBJECT,7,LO
2069369,240,2088.049999998533,1,OBJECT,46,LO
2069369,241,1637.5600000028498,1,LOCATION,17,AL
2069369,242,1290.764999998035,1,OBJECT,13,LO
2069369,243,1778.070000000298,1,OBJECT,28,LO
2069369,244,3308.0449999979464,1,OBJECT,4,LO
2069369,245,2200.199999999255,1,OBJECT,22,LO
2069369,246,1347.4350000033155,1,ANIMAL,9,OA
2069369,247,1537.7700000026962,1,OBJECT,10,LO
2069369,248,3521.1299999937182,0,ANIMAL,33,OA
2069369,249,1948.2649999990826,1,LOCATION,35,AL
2069369,250,2604.720000002999,1,LOCATION,14,AL
2069369,251,2836.3249999965774,1,LOCATION,38,AL
2069369,252,3043.3499999999767,1,OBJECT,52,LO
2069369,253,3641.9349999997066,0,ANIMAL,51,OA
2069369,254,3472.0250000028173,1,OBJECT,37,LO
2069369,255,2073.0149999945424,0,LOCATION,23,AL
2069369,256,3216.964999999618,0,OBJECT,1,LO
2069369,257,2736.9949999994133,1,LOCATION,41,AL
2069369,258,2752.019999999786,0,LOCATION,5,AL
2069369,259,2680.3599999984726,0,LOCATION,44,AL
2069369,260,2802.23500000278,0,ANIMAL,36,OA
2069369,261,1097.9149999984074,1,OBJECT,16,LO
2069369,262,4297.915000002831,0,ANIMAL,30,OA
2069369,263,2473.8399999988033,0,LOCATION,29,AL
2069369,264,2121.9199999977136,1,OBJECT,40,LO
2069369,265,1786.6950000023935,1,ANIMAL,24,OA
2069369,266,1157.6350000031525,1,ANIMAL,6,OA
2069369,267,1493.3749999981374,1,LOCATION,50,AL
2069369,268,3946.1899999950547,0,ANIMAL,45,OA
2069369,269,2717.549999993993,1,OBJECT,25,LO
2069369,270,1193.0949999950826,1,ANIMAL,18,OA
2069369,271,1096.0150000026915,1,OBJECT,49,LO
2069369,272,2213.66499999573,1,ANIMAL,48,OA
2069369,273,2741.564999996568,0,LOCATION,3,AL
2069369,274,1097.3049999956274,1,ANIMAL,52,OA
2069369,275,2406.260000003269,0,LOCATION,18,AL
2069369,276,2143.2050000003073,1,LOCATION,27,AL
2069369,277,1306.384999996284,1,ANIMAL,43,OA
2069369,278,2665.4149999958463,0,OBJECT,38,LO
2069369,279,1651.7499999973224,1,ANIMAL,34,OA
2069369,280,1177.3099999991246,1,ANIMAL,40,OA
2069369,281,3547.4900000044145,1,LOCATION,21,AL
2069369,282,2839.065000000177,1,ANIMAL,13,OA
2069369,283,3139.1499999953667,1,ANIMAL,49,OA
2069369,284,1364.244999997085,1,LOCATION,15,AL
2069369,285,1749.4050000023562,1,ANIMAL,37,OA
2069369,286,1783.3600000012666,1,LOCATION,9,AL
2069369,287,1759.6800000028452,1,LOCATION,48,AL
2069369,288,1677.8599999961443,1,LOCATION,24,AL
2069369,289,2629.0650000011083,0,LOCATION,36,AL
2069369,290,1869.5450000013225,1,OBJECT,5,LO
2069369,291,3286.9599999976344,1,OBJECT,32,LO
2069369,292,3038.5899999963585,1,LOCATION,12,AL
2069369,293,3162.420000000624,1,OBJECT,17,LO
2069369,294,2396.1399999968708,1,OBJECT,14,LO
2069369,295,2014.9600000004284,1,OBJECT,29,LO
2069369,296,2013.2900000028312,1,LOCATION,54,AL
2069369,297,2374.970000004396,0,ANIMAL,22,OA
2069369,298,3638.4800000013784,0,LOCATION,6,AL
2069369,299,2823.1200000008103,0,LOCATION,45,AL
2069369,300,2034.5799999996088,1,OBJECT,50,LO
2069369,301,1261.5300000035204,1,ANIMAL,1,OA
2069369,302,994.1550000004936,1,ANIMAL,4,OA
2069369,303,4313.1950000023935,0,LOCATION,39,AL
2069369,304,2425.434999997262,1,ANIMAL,19,OA
2069369,305,1183.6249999979045,1,OBJECT,41,LO
2069369,306,1141.6049999971874,1,OBJECT,2,LO
2069369,307,2252.3099999963306,1,LOCATION,42,AL
2069369,308,2468.8900000038557,1,OBJECT,20,LO
2069369,309,869.9899999990594,1,ANIMAL,7,OA
2069369,310,1223.1499999980442,1,ANIMAL,16,OA
2069369,311,2506.7199999976438,1,OBJECT,44,LO
2069369,312,2713.945000003092,1,OBJECT,23,LO
2069369,313,1919.5700000054203,0,LOCATION,51,AL
2069369,314,1976.1450000004843,1,ANIMAL,25,OA
2069369,315,1960.4350000009872,1,OBJECT,26,LO
2069369,316,2501.83999999729,1,OBJECT,11,LO
2069369,317,1715.8199999977369,1,ANIMAL,46,OA
2069369,318,1362.739999996964,1,OBJECT,47,LO
2069369,319,1538.9649999996182,1,OBJECT,53,LO
2069369,320,1729.9950000015087,0,LOCATION,30,AL
2069369,321,1001.1499999966472,1,ANIMAL,10,OA
2069369,322,2941.660000004107,0,LOCATION,33,AL
2069369,323,2088.1050000025425,1,OBJECT,8,LO
2069369,324,3191.6899999997113,0,ANIMAL,28,OA
2069369,325,3671.7799999967683,1,OBJECT,35,LO
2069369,326,2098.295000003418,0,ANIMAL,31,OA
2069537,3,2735.589999705553,0,LOCATION,11,OL
2069537,4,3024.7599999420345,0,LOCATION,29,OL
2069537,5,3284.860000014305,0,OBJECT,52,AO
2069537,6,1992.1849998645484,1,ANIMAL,21,LA
2069537,7,2813.1649997085333,0,OBJECT,1,AO
2069537,8,3647.6199999451637,0,LOCATION,38,OL
2069537,9,3939.6750000305474,1,ANIMAL,18,LA
2069537,10,1786.365000065416,1,OBJECT,25,AO
2069537,11,1567.9299999028444,1,OBJECT,7,AO
2069537,12,1996.0500001907349,1,OBJECT,43,AO
2069537,13,1846.404999960214,1,ANIMAL,30,LA
2069537,14,2930.9049998410046,0,ANIMAL,12,LA
2069537,15,4235.845000017434,0,ANIMAL,9,LA
2069537,16,4485.015000216663,0,ANIMAL,45,LA
2069537,17,1427.1349995397031,1,ANIMAL,15,LA
2069537,18,3861.3749998621643,1,OBJECT,16,AO
2069537,19,3752.2550001740456,0,LOCATION,14,OL
2069537,20,2889.889999758452,0,OBJECT,37,AO
2069537,21,827.0250000059605,1,OBJECT,13,AO
2069537,22,1476.2800000607967,1,ANIMAL,3,LA
2069537,23,3057.7899999916553,0,ANIMAL,24,LA
2069537,24,2457.5649998150766,1,OBJECT,31,AO
2069537,25,3739.2649999819696,1,LOCATION,17,OL
2069537,26,3293.074999935925,0,LOCATION,41,OL
2069537,27,2889.9499997496605,0,ANIMAL,54,LA
2069537,28,3669.854999985546,1,LOCATION,50,OL
2069537,29,3897.8849998675287,1,OBJECT,49,AO
2069537,30,3055.234999861568,0,ANIMAL,39,LA
2069537,31,3839.0049999579787,0,OBJECT,19,AO
2069537,32,2929.380000103265,0,LOCATION,23,OL
2069537,33,1423.5200001858175,1,ANIMAL,6,LA
2069537,34,3290.2199998497963,0,LOCATION,26,OL
2069537,35,1276.9850003533065,1,OBJECT,10,AO
2069537,36,2268.2350003160536,1,LOCATION,2,OL
2069537,37,2555.064999964088,1,ANIMAL,33,LA
2069537,38,2953.9399999193847,1,LOCATION,35,OL
2069537,39,3809.8100000061095,1,ANIMAL,42,LA
2069537,40,2635.9949996694922,1,ANIMAL,51,LA
2069537,41,3444.230000022799,0,LOCATION,44,OL
2069537,42,2780.4749999195337,0,OBJECT,40,AO
2069537,43,3400.2950000576675,0,ANIMAL,48,LA
2069537,44,4064.079999923706,0,OBJECT,34,AO
2069537,45,3725.0900003127754,0,ANIMAL,27,LA
2069537,46,2762.614999897778,1,ANIMAL,36,LA
2069537,47,2977.1150001324713,1,OBJECT,46,AO
2069537,48,2577.4599998258054,0,LOCATION,47,OL
2069537,49,3448.8149997778237,1,LOCATION,20,OL
2069537,50,3082.4199998751283,1,LOCATION,53,OL
2069537,51,2968.0899996310472,0,LOCATION,32,OL
2069537,52,3006.2150000594556,1,OBJECT,4,AO
2069537,53,2794.5300000719726,0,LOCATION,8,OL
2069537,54,3313.00999969244,0,OBJECT,28,AO
2069537,55,2450.0799998641014,1,OBJECT,22,AO
2069537,56,1989.7050000727177,1,LOCATION,5,OL
2069537,57,2352.034999988973,0,LOCATION,27,OL
2069537,58,1597.5200003013015,0,OBJECT,50,AO
2069537,59,2487.490000203252,0,LOCATION,48,OL
2069537,60,2055.190000217408,1,ANIMAL,34,LA
2069537,61,2542.3249998129904,0,LOCATION,54,OL
2069537,62,1526.0850000195205,1,LOCATION,21,OL
2069537,63,3140.954999718815,1,OBJECT,38,AO
2069537,64,2742.0799997635186,0,LOCATION,18,OL
2069537,65,2459.0499997138977,0,LOCATION,51,OL
2069537,66,3290.3649997897446,1,ANIMAL,16,LA
2069537,67,3731.445000041276,0,LOCATION,42,OL
2069537,68,2718.914999626577,0,OBJECT,2,AO
2069537,69,3043.429999612272,0,LOCATION,36,OL
2069537,70,2313.550000078976,1,ANIMAL,46,LA
2069537,71,3467.759999912232,0,ANIMAL,19,LA
2069537,72,1768.6000000685453,1,ANIMAL,13,LA
2069537,73,2314.8449999280274,0,LOCATION,24,OL
2069537,74,3074.7049995698035,1,OBJECT,17,AO
2069537,75,1382.5149997137487,1,ANIMAL,7,LA
2069537,76,1705.080000218004,1,LOCATION,30,OL
2069537,77,1856.3500000163913,1,ANIMAL,10,LA
2069537,78,2654.3199997395277,1,ANIMAL,28,LA
2069537,79,2811.4800001494586,0,OBJECT,11,AO
2069537,80,2591.424999758601,0,LOCATION,15,OL
2069537,81,3484.900000039488,0,LOCATION,9,OL
2069537,82,2891.6549999266863,1,ANIMAL,40,LA
2069537,83,2678.3950002864003,1,OBJECT,41,AO
2069537,84,3963.3849998936057,0,OBJECT,35,AO
2069537,85,1958.8000001385808,1,OBJECT,26,AO
2069537,86,3852.059999946505,0,LOCATION,45,OL
2069537,87,2923.280000220984,0,ANIMAL,49,LA
2069537,88,3174.445000011474,0,OBJECT,44,AO
2069537,89,1720.780000090599,1,LOCATION,6,OL
2069537,90,1717.600000090897,1,ANIMAL,43,LA
2069537,91,1593.9050000160933,1,OBJECT,29,AO
2069537,92,2948.1700002215803,1,OBJECT,53,AO
2069537,93,2229.700000025332,0,ANIMAL,4,LA
2069537,94,3157.7900000847876,0,OBJECT,32,AO
2069537,95,4038.74500002712,1,ANIMAL,52,LA
2069537,96,3746.9750000163913,0,OBJECT,47,AO
2069537,97,3322.7800000458956,0,OBJECT,5,AO
2069537,98,1780.169999692589,0,ANIMAL,37,LA
2069537,99,4055.550000164658,1,ANIMAL,22,LA
2069537,100,2053.0050001107156,1,LOCATION,33,OL
2069537,101,1753.264999948442,0,OBJECT,20,AO
2069537,102,1383.7800002656877,1,LOCATION,3,OL
2069537,103,2053.5349999554455,0,ANIMAL,1,LA
2069537,104,4659.3050002120435,1,OBJECT,14,AO
2069537,105,3661.1649999395013,0,LOCATION,12,OL
2069537,106,2886.739999987185,1,OBJECT,8,AO
2069537,107,4480.764999985695,1,LOCATION,39,OL
2069537,108,2655.354999937117,1,ANIMAL,31,LA
2069537,109,2094.3099996075034,1,ANIMAL,25,LA
2069537,110,2153.3050001598895,1,OBJECT,23,AO
2069537,111,3290.2950001880527,1,ANIMAL,35,LA
2069537,112,1527.4300002492964,1,OBJECT,6,AO
2069537,113,3902.8549999929965,0,OBJECT,27,AO
2069537,114,2321.4650000445545,1,LOCATION,10,OL
2069537,115,2203.470000065863,0,ANIMAL,38,LA
2069537,116,3356.645000167191,1,ANIMAL,8,LA
2069537,117,1981.5400000661612,0,ANIMAL,41,LA
2069537,118,1809.2700000852346,1,LOCATION,13,OL
2069537,119,3185.554999858141,0,ANIMAL,47,LA
2069537,120,2207.799999974668,1,ANIMAL,2,LA
2069537,121,2466.0649998113513,1,OBJECT,12,AO
2069537,122,2417.5749998539686,1,LOCATION,1,OL
2069537,123,2212.410000152886,1,LOCATION,25,OL
2069537,124,1144.6449998766184,1,OBJECT,21,AO
2069537,125,3359.6700001507998,0,OBJECT,36,AO
2069537,126,1933.7900001555681,1,LOCATION,4,OL
2069537,127,1330.610000062734,1,LOCATION,43,OL
2069537,128,4244.799999985844,1,LOCATION,34,OL
2069537,129,1974.5600000023842,1,OBJECT,33,AO
2069537,130,2372.334999963641,1,OBJECT,9,AO
2069537,131,2673.204999882728,1,LOCATION,40,OL
2069537,132,1803.1549998559058,1,ANIMAL,29,LA
2069537,133,4494.794999714941,0,ANIMAL,5,LA
2069537,134,1978.5850001499057,1,OBJECT,3,AO
2069537,135,2273.930000141263,1,OBJECT,18,AO
2069537,136,2055.4749998264015,1,OBJECT,48,AO
2069537,137,2403.1899999827147,1,LOCATION,28,OL
2069537,138,2172.414999920875,0,ANIMAL,20,LA
2069537,139,2906.254999805242,1,LOCATION,31,OL
2069537,140,3309.02999965474,0,LOCATION,46,OL
2069537,141,2456.3500001095235,0,ANIMAL,44,LA
2069537,142,4390.379999764264,0,ANIMAL,23,LA
2069537,143,3423.375000245869,0,OBJECT,45,AO
2069537,144,2662.5000000931323,0,OBJECT,15,AO
2069537,145,3025.164999999106,1,OBJECT,24,AO
2069537,146,2393.1249999441206,1,LOCATION,52,OL
2069537,147,4074.934999924153,0,OBJECT,51,AO
2069537,148,3206.89499983564,0,ANIMAL,11,LA
2069537,149,1763.150000013411,1,LOCATION,7,OL
2069537,150,2010.4299997910857,1,LOCATION,16,OL
2069537,151,4214.964999817312,1,ANIMAL,26,LA
2069537,152,3663.38500007987,1,LOCATION,19,OL
2069537,153,2536.899999715388,0,ANIMAL,14,LA
2069537,154,1184.3500002287328,1,OBJECT,30,AO
2069537,155,2583.5599997080863,0,LOCATION,37,OL
2069537,156,3100.899999961257,0,ANIMAL,17,LA
2069537,157,3093.5200001113117,0,LOCATION,49,OL
2069537,158,4434.36500011012,0,OBJECT,42,AO
2069537,159,1683.2799999974668,0,OBJECT,39,AO
2069537,160,2092.9749999195337,0,OBJECT,54,AO
2069537,161,2372.0750003121793,1,LOCATION,22,OL
2069537,162,2753.370000049472,1,ANIMAL,32,LA
2069537,163,2350.2500001341105,0,ANIMAL,50,LA
2069537,164,3519.0349998883903,1,ANIMAL,53,LA
2069537,165,1037.4500001780689,1,LOCATION,25,AL
2069537,166,3187.404999975115,1,OBJECT,54,LO
2069537,167,2300.1699997112155,0,LOCATION,19,AL
2069537,168,2205.034999642521,1,ANIMAL,11,OA
2069537,169,4446.884999983013,1,ANIMAL,50,OA
2069537,170,1240.6850000843406,1,ANIMAL,17,OA
2069537,171,2804.3200001120567,0,LOCATION,4,AL
2069537,172,3001.414999831468,0,ANIMAL,14,OA
2069537,173,2920.2450001612306,0,LOCATION,22,AL
2069537,174,3989.8749999701977,0,ANIMAL,5,OA
2069537,175,1834.5550000667572,1,LOCATION,16,AL
2069537,176,3114.240000024438,1,LOCATION,46,AL
2069537,177,3261.20000006631,0,OBJECT,45,LO
2069537,178,3277.62999990955,1,LOCATION,37,AL
2069537,179,2196.234999690205,1,LOCATION,10,AL
2069537,180,3876.5249997377396,0,OBJECT,9,LO
2069537,181,2176.3349999673665,1,ANIMAL,47,OA
2069537,182,3830.684999935329,0,OBJECT,18,LO
2069537,183,1917.8450000472367,1,OBJECT,39,LO
2069537,184,2218.319999985397,1,OBJECT,51,LO
2069537,185,3468.0900000967085,0,OBJECT,36,LO
2069537,186,3605.5350000970066,1,ANIMAL,2,OA
2069537,187,2694.199999794364,0,OBJECT,12,LO
2069537,188,2786.01499972865,1,OBJECT,33,LO
2069537,189,3328.660000115633,0,ANIMAL,26,OA
2069537,190,4085.899999830872,0,ANIMAL,23,OA
2069537,191,3562.9150001332164,0,OBJECT,15,LO
2069537,192,1624.4949996471405,1,OBJECT,30,LO
2069537,193,2456.7900002002716,0,ANIMAL,41,OA
2069537,194,3272.1250001341105,0,ANIMAL,20,OA
2069537,195,1099.8800001107156,1,ANIMAL,29,OA
2069537,196,2779.7699999064207,1,ANIMAL,53,OA
2069537,197,2544.469999615103,1,LOCATION,43,AL
2069537,198,1763.0350003018975,0,ANIMAL,44,OA
2069537,199,1098.5799999907613,1,OBJECT,3,LO
2069537,200,1824.955000076443,1,LOCATION,31,AL
2069537,201,1793.7300000339746,1,LOCATION,34,AL
2069537,202,4255.880000069737,0,LOCATION,40,AL
2069537,203,3677.854999899864,0,ANIMAL,35,OA
2069537,204,3879.9000000581145,1,OBJECT,42,LO
2069537,205,4146.445000078529,1,OBJECT,27,LO
2069537,206,2726.974999997765,1,ANIMAL,32,OA
2069537,207,3580.3200001828372,0,OBJECT,24,LO
2069537,208,1449.9949999153614,0,LOCATION,7,AL
2069537,209,2175.679999869317,0,LOCATION,52,AL
2069537,210,1537.149999756366,1,ANIMAL,8,OA
2069537,211,1676.709999796003,1,OBJECT,6,LO
2069537,212,1105.2049999125302,1,OBJECT,21,LO
2069537,213,2272.175000049174,1,LOCATION,28,AL
2069537,214,1640.5199998989701,1,ANIMAL,38,OA
2069537,215,2237.629999872297,0,LOCATION,49,AL
2069537,216,3159.535000100732,0,OBJECT,48,LO
2069537,217,1533.3449998870492,1,LOCATION,13,AL
2069537,218,1744.3300001323223,0,LOCATION,1,AL
2069537,219,2154.399999883026,1,OBJECT,52,LO
2069537,220,3034.350000321865,1,ANIMAL,48,OA
2069537,221,2484.999999869615,0,LOCATION,32,AL
2069537,222,3587.055000010878,0,OBJECT,40,LO
2069537,223,3372.8450001217425,0,ANIMAL,27,OA
2069537,224,3756.3149998895824,0,OBJECT,46,LO
2069537,225,2206.5749997273088,0,LOCATION,20,AL
2069537,226,2272.090000100434,1,LOCATION,17,AL
2069537,227,3277.1250000223517,1,ANIMAL,42,OA
2069537,228,2245.8499995991588,1,OBJECT,37,LO
2069537,229,1686.2849998287857,1,ANIMAL,45,OA
2069537,230,1630.8800000697374,1,ANIMAL,30,OA
2069537,231,1907.0999999530613,1,OBJECT,7,LO
2069537,232,2074.324999935925,0,OBJECT,1,LO
2069537,233,2965.204999782145,1,ANIMAL,3,OA
2069537,234,3112.1700000949204,0,ANIMAL,15,OA
2069537,235,2194.5799998939037,1,ANIMAL,9,OA
2069537,236,3239.819999784231,0,LOCATION,41,AL
2069537,237,1262.5899999402463,1,OBJECT,13,LO
2069537,238,2385.075000114739,0,ANIMAL,24,OA
2069537,239,2805.0400000065565,1,LOCATION,53,AL
2069537,240,2207.6599998399615,1,OBJECT,10,LO
2069537,241,2418.525000102818,1,LOCATION,5,AL
2069537,242,1752.8800000436604,1,LOCATION,26,AL
2069537,243,2690.2549997903407,1,OBJECT,28,LO
2069537,244,3073.539999779314,1,OBJECT,16,LO
2069537,245,2101.6199998557568,1,LOCATION,50,AL
2069537,246,3330.5700002238154,0,ANIMAL,39,OA
2069537,247,3292.115000076592,1,LOCATION,29,AL
2069537,248,2124.5749997906387,0,LOCATION,44,AL
2069537,249,2802.3049999028444,0,LOCATION,38,AL
2069537,250,3682.4949998408556,1,OBJECT,31,LO
2069537,251,2361.8850000202656,1,ANIMAL,36,OA
2069537,252,942.7149998955429,1,ANIMAL,33,OA
2069537,253,1545.4450002871454,1,OBJECT,43,LO
2069537,254,1671.7600002884865,0,LOCATION,8,AL
2069537,255,3709.4250000081956,0,OBJECT,34,LO
2069537,256,2910.304999910295,1,LOCATION,2,AL
2069537,257,4047.770000062883,0,LOCATION,47,AL
2069537,258,2884.6849999390543,0,LOCATION,23,AL
2069537,259,2769.970000255853,1,OBJECT,4,LO
2069537,260,1228.9200001396239,0,LOCATION,35,AL
2069537,261,2755.369999911636,1,OBJECT,19,LO
2069537,262,2962.824999820441,1,ANIMAL,18,OA
2069537,263,2142.994999885559,1,LOCATION,11,AL
2069537,264,4388.604999985546,1,LOCATION,14,AL
2069537,265,4756.004999857396,1,OBJECT,49,LO
2069537,266,1128.9749997667968,0,ANIMAL,12,OA
2069537,267,2217.579999938607,1,ANIMAL,51,OA
2069537,268,3440.69500034675,1,OBJECT,22,LO
2069537,269,2082.5050002895296,0,ANIMAL,54,OA
2069537,270,1070.9100002422929,1,ANIMAL,21,OA
2069537,271,1775.7250000722706,1,OBJECT,25,LO
2069537,272,2807.8000000678003,1,ANIMAL,6,OA
2069537,273,2607.8200000338256,1,OBJECT,17,LO
2069537,274,1323.2650002464652,1,LOCATION,21,AL
2069537,275,4434.279999695718,1,OBJECT,23,LO
2069537,276,3450.304999947548,0,LOCATION,15,AL
2069537,277,3630.6099998764694,0,LOCATION,24,AL
2069537,278,1327.0999998785555,1,LOCATION,3,AL
2069537,279,2603.5899999551475,0,OBJECT,32,LO
2069537,280,3965.0150001980364,1,OBJECT,8,LO
2069537,281,1005.390000063926,1,ANIMAL,7,OA
2069537,282,1978.6600000225008,1,LOCATION,51,AL
2069537,283,2377.925000153482,0,LOCATION,48,AL
2069537,284,3029.2449998669326,0,ANIMAL,49,OA
2069537,285,3953.99499963969,1,OBJECT,50,LO
2069537,286,1450.6949996575713,1,ANIMAL,16,OA
2069537,287,1831.9049999117851,1,ANIMAL,28,OA
2069537,288,1127.7899998240173,1,ANIMAL,10,OA
2069537,289,2695.689999964088,1,LOCATION,42,AL
2069537,290,1584.7200001589954,0,LOCATION,36,AL
2069537,291,4003.4799999557436,1,LOCATION,54,AL
2069537,292,2061.4049998112023,1,ANIMAL,4,OA
2069537,293,1854.4100001454353,0,LOCATION,18,AL
2069537,294,2297.119999770075,0,ANIMAL,1,OA
2069537,295,2976.615000050515,0,ANIMAL,34,OA
2069537,296,2830.345000140369,0,ANIMAL,22,OA
2069537,297,2166.4350000210106,1,OBJECT,53,LO
2069537,298,2884.849999565631,1,ANIMAL,46,OA
2069537,299,1244.1099998541176,0,OBJECT,2,LO
2069537,300,3408.359999768436,1,OBJECT,20,LO
2069537,301,1873.9100000821054,1,OBJECT,35,LO
2069537,302,2350.2600002102554,1,ANIMAL,31,OA
2069537,303,2921.3599995709956,0,OBJECT,29,LO
2069537,304,3076.1350002139807,1,OBJECT,11,LO
2069537,305,3398.134999908507,0,OBJECT,38,LO
2069537,306,1614.7099998779595,0,LOCATION,39,AL
2069537,307,1038.8750000856817,1,LOCATION,6,AL
2069537,308,1023.7949998117983,1,ANIMAL,25,OA
2069537,309,3412.5000000931323,1,OBJECT,5,LO
2069537,310,948.6149996519089,0,LOCATION,12,AL
2069537,311,2918.7999996356666,1,OBJECT,44,LO
2069537,312,1637.889999896288,1,ANIMAL,13,OA
2069537,313,4340.824999846518,1,ANIMAL,19,OA
2069537,314,1244.959999807179,1,LOCATION,33,AL
2069537,315,2726.4200001955032,1,LOCATION,45,AL
2069537,316,1722.89999993518,1,ANIMAL,52,OA
2069537,317,1389.5499999634922,1,OBJECT,26,LO
2069537,318,3950.829999987036,1,ANIMAL,43,OA
2069537,319,2219.794999808073,0,LOCATION,27,AL
2069537,320,2301.5000000596046,0,ANIMAL,40,OA
2069537,321,2603.025000076741,0,OBJECT,47,LO
2069537,322,2792.7549998275936,1,ANIMAL,37,OA
2069537,323,3627.0699999295175,0,OBJECT,14,LO
2069537,324,3631.0199997387826,1,OBJECT,41,LO
2069537,325,1457.624999806285,1,LOCATION,30,AL
2069537,326,3853.0249996110797,1,LOCATION,9,AL
2069365,3,2248,0,OBJECT,16,AO
2069365,4,2810,0,OBJECT,28,AO
2069365,5,2229,0,ANIMAL,9,LA
2069365,6,2714,0,ANIMAL,18,LA
2069365,7,3247,0,LOCATION,20,OL
2069365,8,4266,0,ANIMAL,51,LA
2069365,9,3554,1,LOCATION,44,OL
2069365,10,4568,1,ANIMAL,12,LA
2069365,11,1712,1,OBJECT,19,AO
2069365,12,1883,1,OBJECT,25,AO
2069365,13,3502,1,ANIMAL,45,LA
2069365,14,5997.959999999992,miss,ANIMAL,21,LA
2069365,15,2536,0,LOCATION,29,OL
2069365,16,3322,1,ANIMAL,30,LA
2069365,17,3343,0,LOCATION,26,OL
2069365,18,2571,0,LOCATION,5,OL
2069365,19,2540,1,LOCATION,11,OL
2069365,20,2160,1,LOCATION,47,OL
2069365,21,3533,0,OBJECT,40,AO
2069365,22,2462,1,OBJECT,46,AO
2069365,23,4334,0,LOCATION,17,OL
2069365,24,3482,1,LOCATION,23,OL
2069365,25,3520,0,ANIMAL,27,LA
2069365,26,5036,1,ANIMAL,48,LA
2069365,27,2853,0,OBJECT,22,AO
2069365,28,3357,0,ANIMAL,24,LA
2069365,29,2986,1,OBJECT,34,AO
2069365,30,2340,0,ANIMAL,6,LA
2069365,31,4278,0,LOCATION,14,OL
2069365,32,4258,0,LOCATION,41,OL
2069365,33,4461,1,LOCATION,32,OL
2069365,34,4168,0,ANIMAL,54,LA
2069365,35,3313,0,LOCATION,2,OL
2069365,36,1793,0,LOCATION,38,OL
2069365,37,3307,1,ANIMAL,36,LA
2069365,38,2306,0,LOCATION,50,OL
2069365,39,2074,0,LOCATION,53,OL
2069365,40,3304,0,OBJECT,43,AO
2069365,41,2957,1,ANIMAL,3,LA
2069365,42,2944,1,ANIMAL,15,LA
2069365,43,2475,1,ANIMAL,42,LA
2069365,44,2276,0,OBJECT,1,AO
2069365,45,4431,0,OBJECT,31,AO
2069365,46,4264,1,OBJECT,37,AO
2069365,47,4638,0,ANIMAL,39,LA
2069365,48,2198,0,LOCATION,35,OL
2069365,49,1521,1,OBJECT,4,AO
2069365,50,1603,1,OBJECT,49,AO
2069365,51,2473,0,OBJECT,10,AO
2069365,52,3041,0,ANIMAL,33,LA
2069365,53,3134,0,OBJECT,7,AO
2069365,54,2095,1,OBJECT,52,AO
2069365,55,2593,1,OBJECT,13,AO
2069365,56,4904,1,LOCATION,8,OL
2069365,57,2209,1,LOCATION,21,OL
2069365,58,3339,0,LOCATION,33,OL
2069365,59,2657,1,ANIMAL,19,LA
2069365,60,4003,1,LOCATION,51,OL
2069365,61,3531,0,OBJECT,14,AO
2069365,62,2208,0,ANIMAL,46,LA
2069365,63,4470,0,OBJECT,29,AO
2069365,64,4129,1,ANIMAL,10,LA
2069365,65,3135,1,ANIMAL,31,LA
2069365,66,3419,1,LOCATION,48,OL
2069365,67,1882,0,OBJECT,20,AO
2069365,68,2756,0,LOCATION,30,OL
2069365,69,2474,0,OBJECT,41,AO
2069365,70,2147,0,LOCATION,24,OL
2069365,71,2338,0,LOCATION,18,OL
2069365,72,1699,0,ANIMAL,40,LA
2069365,73,2691,0,OBJECT,35,AO
2069365,74,2306,1,OBJECT,32,AO
2069365,75,2607,1,OBJECT,2,AO
2069365,76,2921,0,ANIMAL,13,LA
2069365,77,3761,0,OBJECT,8,AO
2069365,78,4417,1,ANIMAL,52,LA
2069365,79,4429,0,ANIMAL,43,LA
2069365,80,1833,1,OBJECT,38,AO
2069365,81,5997.960000000021,miss,LOCATION,54,OL
2069365,82,3265,0,ANIMAL,22,LA
2069365,83,2886,0,LOCATION,36,OL
2069365,84,1354,1,ANIMAL,37,LA
2069365,85,2113,0,ANIMAL,25,LA
2069365,86,2437,0,ANIMAL,7,LA
2069365,87,3229,0,OBJECT,5,AO
2069365,88,1558,0,OBJECT,26,AO
2069365,89,1857,0,OBJECT,44,AO
2069365,90,1555,1,LOCATION,45,OL
2069365,91,3083,1,OBJECT,53,AO
2069365,92,2326,1,OBJECT,50,AO
2069365,93,1196,0,OBJECT,11,AO
2069365,94,1734,1,OBJECT,47,AO
2069365,95,1551,0,LOCATION,3,OL
2069365,96,2055,0,ANIMAL,16,LA
2069365,97,2107,0,LOCATION,6,OL
2069365,98,2487,0,LOCATION,39,OL
2069365,99,2957,0,LOCATION,12,OL
2069365,100,2665,0,ANIMAL,49,LA
2069365,101,1642,0,LOCATION,27,OL
2069365,102,2344,1,LOCATION,42,OL
2069365,103,2517,0,LOCATION,15,OL
2069365,104,2686,0,ANIMAL,4,LA
2069365,105,1749,1,OBJECT,23,AO
2069365,106,1247,0,LOCATION,9,OL
2069365,107,2073,0,OBJECT,17,AO
2069365,108,2252,0,ANIMAL,28,LA
2069365,109,2012,0,ANIMAL,34,LA
2069365,110,2709,1,ANIMAL,1,LA
2069365,111,1269,0,ANIMAL,11,LA
2069365,112,1224,1,LOCATION,4,OL
2069365,113,2068,1,OBJECT,6,AO
2069365,114,2924,0,LOCATION,43,OL
2069365,115,2581,0,OBJECT,3,AO
2069365,116,1853,0,LOCATION,10,OL
2069365,117,2013,0,OBJECT,27,AO
2069365,118,2566,1,ANIMAL,2,LA
2069365,119,4229,1,ANIMAL,50,LA
2069365,120,3845,0,ANIMAL,47,LA
2069365,121,3395,0,OBJECT,18,AO
2069365,122,2662,0,OBJECT,51,AO
2069365,123,2370,0,ANIMAL,26,LA
2069365,124,2464,1,ANIMAL,38,LA
2069365,125,1700,1,OBJECT,12,AO
2069365,126,3222,1,ANIMAL,29,LA
2069365,127,3281,1,LOCATION,49,OL
2069365,128,2495,0,OBJECT,24,AO
2069365,129,1715,0,ANIMAL,35,LA
2069365,130,2818,1,LOCATION,52,OL
2069365,131,2027,0,LOCATION,31,OL
2069365,132,1610,0,OBJECT,45,AO
2069365,133,3081,0,OBJECT,36,AO
2069365,134,3932,0,OBJECT,9,AO
2069365,135,3559,0,LOCATION,13,OL
2069365,136,3131,0,LOCATION,25,OL
2069365,137,2743,0,ANIMAL,17,LA
2069365,138,2535,0,ANIMAL,20,LA
2069365,139,3023,1,LOCATION,7,OL
2069365,140,3262,0,ANIMAL,14,LA
2069365,141,2955,0,LOCATION,34,OL
2069365,142,5557,0,LOCATION,16,OL
2069365,143,2921,0,OBJECT,15,AO
2069365,144,2274,0,LOCATION,40,OL
2069365,145,2755,0,OBJECT,30,AO
2069365,146,2363,0,OBJECT,39,AO
2069365,147,2061,0,OBJECT,54,AO
2069365,148,2078,0,OBJECT,42,AO
2069365,149,2004,0,OBJECT,33,AO
2069365,150,2104,0,OBJECT,21,AO
2069365,151,1520,0,OBJECT,48,AO
2069365,152,4056,0,LOCATION,46,OL
2069365,153,1494,0,ANIMAL,53,LA
2069365,154,4017,0,LOCATION,37,OL
2069365,155,1338,0,LOCATION,28,OL
2069365,156,1443,1,LOCATION,19,OL
2069365,157,2822,0,ANIMAL,44,LA
2069365,158,1613,1,ANIMAL,32,LA
2069365,159,3034,1,ANIMAL,41,LA
2069365,160,2047,1,ANIMAL,5,LA
2069365,161,3509,0,ANIMAL,23,LA
2069365,162,2107,0,LOCATION,22,OL
2069365,163,1869,1,LOCATION,1,OL
2069365,164,4036,0,ANIMAL,8,LA
2069365,165,2856,1,ANIMAL,44,OA
2069365,166,2798,1,OBJECT,45,LO
2069365,167,1915,1,LOCATION,7,AL
2069365,168,2952,0,ANIMAL,35,OA
2069365,169,3857,1,ANIMAL,47,OA
2069365,170,3901,1,OBJECT,6,LO
2069365,171,2430,0,LOCATION,46,AL
2069365,172,3000,1,OBJECT,30,LO
2069365,173,3956,1,LOCATION,1,AL
2069365,174,2336,1,LOCATION,19,AL
2069365,175,1517,0,OBJECT,3,LO
2069365,176,1580,1,LOCATION,43,AL
2069365,177,3357,0,LOCATION,31,AL
2069365,178,3971,0,ANIMAL,8,OA
2069365,179,2926,0,OBJECT,21,LO
2069365,180,1959,1,OBJECT,48,LO
2069365,181,2833,0,OBJECT,36,LO
2069365,182,2527,0,ANIMAL,2,OA
2069365,183,2272,0,ANIMAL,53,OA
2069365,184,1935,1,ANIMAL,38,OA
2069365,185,1940,0,OBJECT,9,LO
2069365,186,1560,0,OBJECT,54,LO
2069365,187,3669,1,LOCATION,13,AL
2069365,188,4753,0,LOCATION,40,AL
2069365,189,4185,1,ANIMAL,17,OA
2069365,190,2863,1,LOCATION,22,AL
2069365,191,3489,1,LOCATION,25,AL
2069365,192,3447,1,LOCATION,34,AL
2069365,193,1654,1,ANIMAL,32,OA
2069365,194,3135,0,ANIMAL,41,OA
2069365,195,1987,0,ANIMAL,5,OA
2069365,196,2496,0,OBJECT,51,LO
2069365,197,2202,1,LOCATION,52,AL
2069365,198,1248,1,LOCATION,37,AL
2069365,199,2610,0,OBJECT,33,LO
2069365,200,2685,1,LOCATION,10,AL
2069365,201,2368,1,LOCATION,4,AL
2069365,202,5060,0,OBJECT,42,LO
2069365,203,1776,0,ANIMAL,23,OA
2069365,204,1660,0,OBJECT,39,LO
2069365,205,3499,1,LOCATION,49,AL
2069365,206,2203,1,OBJECT,27,LO
2069365,207,5856,1,LOCATION,16,AL
2069365,208,2727,1,ANIMAL,50,OA
2069365,209,1867,0,OBJECT,24,LO
2069365,210,1164,1,ANIMAL,29,OA
2069365,211,2870,0,ANIMAL,14,OA
2069365,212,2493,0,ANIMAL,26,OA
2069365,213,1959,1,ANIMAL,20,OA
2069365,214,4731,0,OBJECT,18,LO
2069365,215,3719,0,ANIMAL,11,OA
2069365,216,4447,0,LOCATION,28,AL
2069365,217,4829,1,OBJECT,12,LO
2069365,218,2582,0,OBJECT,15,LO
2069365,219,1456,1,LOCATION,5,AL
2069365,220,4615,0,ANIMAL,18,OA
2069365,221,3826,1,LOCATION,44,AL
2069365,222,3332,1,OBJECT,19,LO
2069365,223,4483,1,OBJECT,40,LO
2069365,224,2692,1,LOCATION,14,AL
2069365,225,2334,0,ANIMAL,30,OA
2069365,226,3827,0,OBJECT,10,LO
2069365,227,3520,1,ANIMAL,39,OA
2069365,228,2557,1,OBJECT,7,LO
2069365,229,2124,0,ANIMAL,21,OA
2069365,230,3752,1,OBJECT,37,LO
2069365,231,2568,0,ANIMAL,54,OA
2069365,232,1944,1,LOCATION,38,AL
2069365,233,3413,1,ANIMAL,48,OA
2069365,234,2478,0,ANIMAL,24,OA
2069365,235,1982,1,LOCATION,2,AL
2069365,236,1776,1,OBJECT,46,LO
2069365,237,3408,0,OBJECT,13,LO
2069365,238,3417,0,LOCATION,11,AL
2069365,239,2021,1,OBJECT,49,LO
2069365,240,1520,1,OBJECT,31,LO
2069365,241,2302,1,ANIMAL,15,OA
2069365,242,1616,1,LOCATION,29,AL
2069365,243,3056,0,OBJECT,43,LO
2069365,244,4293,1,LOCATION,53,AL
2069365,245,2122,0,OBJECT,16,LO
2069365,246,1369,0,ANIMAL,6,OA
2069365,247,1192,0,LOCATION,17,AL
2069365,248,2071,1,OBJECT,4,LO
2069365,249,4098,0,OBJECT,34,LO
2069365,250,4541,1,LOCATION,41,AL
2069365,251,3590,0,ANIMAL,27,OA
2069365,252,4184,0,ANIMAL,9,OA
2069365,253,1430,1,ANIMAL,45,OA
2069365,254,3014,0,LOCATION,26,AL
2069365,255,2128,0,ANIMAL,36,OA
2069365,256,2920,0,OBJECT,22,LO
2069365,257,2590,1,OBJECT,52,LO
2069365,258,1480,0,LOCATION,8,AL
2069365,259,1717,0,ANIMAL,33,OA
2069365,260,2720,1,LOCATION,50,AL
2069365,261,3377,1,ANIMAL,12,OA
2069365,262,3350,0,LOCATION,20,AL
2069365,263,2677,0,OBJECT,25,LO
2069365,264,2679,1,LOCATION,32,AL
2069365,265,3662,1,ANIMAL,42,OA
2069365,266,3670,0,ANIMAL,3,OA
2069365,267,3811,0,OBJECT,1,LO
2069365,268,2714,1,LOCATION,47,AL
2069365,269,5119,0,LOCATION,23,AL
2069365,270,1867,0,LOCATION,35,AL
2069365,271,4549,0,ANIMAL,51,OA
2069365,272,1517,0,OBJECT,28,LO
2069365,273,3124,0,ANIMAL,1,OA
2069365,274,2098,0,ANIMAL,31,OA
2069365,275,3003,0,LOCATION,54,AL
2069365,276,2770,0,ANIMAL,34,OA
2069365,277,3156,0,LOCATION,27,AL
2069365,278,3660,1,OBJECT,5,LO
2069365,279,3552,1,LOCATION,42,AL
2069365,280,2333,0,LOCATION,3,AL
2069365,281,1937,1,ANIMAL,52,OA
2069365,282,2309,1,OBJECT,8,LO
2069365,283,3456,1,ANIMAL,43,OA
2069365,284,3569,1,ANIMAL,25,OA
2069365,285,4204,0,LOCATION,48,AL
2069365,286,2929,1,ANIMAL,46,OA
2069365,287,1604,1,OBJECT,32,LO
2069365,288,4586,0,ANIMAL,40,OA
2069365,289,4420,1,LOCATION,33,AL
2069365,290,3516,0,OBJECT,35,LO
2069365,291,2597,1,ANIMAL,13,OA
2069365,292,1873,1,OBJECT,14,LO
2069365,293,3386,0,LOCATION,18,AL
2069365,294,2685,0,OBJECT,17,LO
2069365,295,2121,0,LOCATION,39,AL
2069365,296,2349,1,OBJECT,50,LO
2069365,297,2947,0,ANIMAL,22,OA
2069365,298,2346,1,OBJECT,11,LO
2069365,299,3328,1,OBJECT,2,LO
2069365,300,4179,0,OBJECT,29,LO
2069365,301,2707,0,ANIMAL,10,OA
2069365,302,1581,1,OBJECT,38,LO
2069365,303,3073,0,LOCATION,9,AL
2069365,304,1530,1,LOCATION,30,AL
2069365,305,3082,0,LOCATION,15,AL
2069365,306,2677,1,OBJECT,53,LO
2069365,307,1881,1,OBJECT,47,LO
2069365,308,2953,1,ANIMAL,37,OA
2069365,309,3378,0,LOCATION,51,AL
2069365,310,3359,0,ANIMAL,28,OA
2069365,311,5078,0,LOCATION,45,AL
2069365,312,1989,0,OBJECT,20,LO
2069365,313,1297,0,ANIMAL,19,OA
2069365,314,2341,0,OBJECT,23,LO
2069365,315,1789,1,ANIMAL,4,OA
2069365,316,2984,0,LOCATION,6,AL
2069365,317,2874,1,OBJECT,41,LO
2069365,318,2338,1,LOCATION,24,AL
2069365,319,1754,0,LOCATION,12,AL
2069365,320,2380,0,ANIMAL,7,OA
2069365,321,1802,1,OBJECT,44,LO
2069365,322,2219,1,ANIMAL,49,OA
2069365,323,2255,1,LOCATION,36,AL
2069365,324,3013,1,ANIMAL,16,OA
2069365,325,1669,0,LOCATION,21,AL
2069365,326,3459,1,OBJECT,26,LO
2070024,3,5999.248999999996,miss,LOCATION,29,OL
2070024,4,4723.740000000362,1,OBJECT,31,AO
2070024,5,2109.190000000126,1,ANIMAL,33,LA
2070024,6,4610.525000000052,0,LOCATION,11,OL
2070024,7,5290.1300000003175,0,OBJECT,49,AO
2070024,8,3601.599999999962,0,OBJECT,4,AO
2070024,9,2757.7400000000125,1,LOCATION,35,OL
2070024,10,3969.3799999995535,0,ANIMAL,30,LA
2070024,11,3271.2799999999406,1,ANIMAL,21,LA
2070024,12,2934.925000000483,1,LOCATION,5,OL
2070024,13,4422.2650000001595,0,ANIMAL,18,LA
2070024,14,5999.248999999996,miss,ANIMAL,42,LA
2070024,15,4793.755000000587,0,ANIMAL,27,LA
2070024,16,4011.059999999823,1,OBJECT,7,AO
2070024,17,3623.9000000005035,1,LOCATION,47,OL
2070024,18,2857.0550000004005,1,LOCATION,32,OL
2070024,19,3364.835000000312,0,OBJECT,52,AO
2070024,20,3577.874999999942,1,ANIMAL,12,LA
2070024,21,4741.019999999495,0,ANIMAL,3,LA
2070024,22,5110.885000000053,0,OBJECT,1,AO
2070024,23,1845.405000000028,1,LOCATION,2,OL
2070024,24,3423.770000000324,0,OBJECT,37,AO
2070024,25,3399.129999999801,1,OBJECT,19,AO
2070024,26,3374.8599999998696,1,LOCATION,38,OL
2070024,27,3077.5750000002445,1,ANIMAL,36,LA
2070024,28,4204.53500000076,1,LOCATION,20,OL
2070024,29,4381.049999999959,1,OBJECT,10,AO
2070024,30,5416.690000000002,1,ANIMAL,15,LA
2070024,31,4193.275000000518,1,LOCATION,17,OL
2070024,32,4003.1950000002107,1,LOCATION,41,OL
2070024,33,4664.915000000299,0,LOCATION,26,OL
2070024,34,3775.9799999994575,1,OBJECT,46,AO
2070024,35,5999.248999999982,miss,ANIMAL,39,LA
2070024,36,4099.0249999995285,0,ANIMAL,51,LA
2070024,37,2611.5399999998917,0,OBJECT,34,AO
2070024,38,4320.115000000427,0,ANIMAL,6,LA
2070024,39,3898.2699999996985,0,LOCATION,50,OL
2070024,40,5363.784999999538,0,LOCATION,53,OL
2070024,41,1593.9250000001339,1,OBJECT,16,AO
2070024,42,1735.674999999901,1,ANIMAL,24,LA
2070024,43,2111.729999999632,1,ANIMAL,9,LA
2070024,44,2945.5099999995728,1,OBJECT,40,AO
2070024,45,3606.28500000076,1,OBJECT,22,AO
2070024,46,1679.1200000006938,1,OBJECT,13,AO
2070024,47,4332.13499999966,0,ANIMAL,48,LA
2070024,48,4475.699999999953,1,ANIMAL,45,LA
2070024,49,4357.605000000156,1,LOCATION,44,OL
2070024,50,4452.25500000015,0,ANIMAL,54,LA
2070024,51,4984.759999999369,1,LOCATION,8,OL
2070024,52,4304.970000000118,0,LOCATION,23,OL
2070024,53,3738.715000000404,0,LOCATION,14,OL
2070024,54,3918.494999999879,0,OBJECT,28,AO
2070024,55,5087.350000000675,1,OBJECT,43,AO
2070024,56,4748.085000000196,1,OBJECT,25,AO
2070024,57,2765.9850000000442,0,ANIMAL,40,LA
2070024,58,4383.039999999688,1,LOCATION,27,OL
2070024,59,3863.8550000005052,0,OBJECT,29,AO
2070024,60,3542.9699999995064,1,LOCATION,54,OL
2070024,61,1295.105000000156,1,LOCATION,36,OL
2070024,62,3958.924999999872,1,OBJECT,14,AO
2070024,63,4486.104999999923,1,ANIMAL,13,LA
2070024,64,5999.2489999999525,miss,OBJECT,47,AO
2070024,65,4829.085000000312,1,ANIMAL,52,LA
2070024,66,3904.3549999996903,1,ANIMAL,49,LA
2070024,67,3686.4300000006333,1,LOCATION,24,OL
2070024,68,5999.503000000026,miss,LOCATION,42,OL
2070024,69,1449.1250000001164,1,ANIMAL,7,LA
2070024,70,3006.9499999999534,0,ANIMAL,10,LA
2070024,71,3915.8850000003586,0,OBJECT,20,AO
2070024,72,4572.019999999611,0,ANIMAL,1,LA
2070024,73,1472.685000000638,1,LOCATION,33,OL
2070024,74,4671.405000000086,0,OBJECT,32,AO
2070024,75,4138.984999999579,0,OBJECT,35,AO
2070024,76,5327.140000000363,0,LOCATION,15,OL
2070024,77,5999.249000000011,miss,OBJECT,26,AO
2070024,78,1661.015000000596,1,ANIMAL,16,LA
2070024,79,3243.1850000002305,0,OBJECT,11,AO
2070024,80,5999.249000000011,miss,LOCATION,18,OL
2070024,81,4317.584999999788,1,OBJECT,2,AO
2070024,82,4378.214999999735,0,LOCATION,6,OL
2070024,83,2620.124999999476,0,ANIMAL,43,LA
2070024,84,4848.659999999625,0,OBJECT,44,AO
2070024,85,2591.9049999993294,1,LOCATION,21,OL
2070024,86,2630.369999999879,0,ANIMAL,46,LA
2070024,87,2783.9000000003725,1,LOCATION,9,OL
2070024,88,3978.890000000305,0,OBJECT,50,AO
2070024,89,5999.2489999999525,miss,ANIMAL,4,LA
2070024,90,3116.874999999709,1,OBJECT,53,AO
2070024,91,4807.705000000191,0,LOCATION,51,OL
2070024,92,4595.875,0,OBJECT,23,AO
2070024,93,5214.520000000426,0,ANIMAL,22,LA
2070024,94,3243.510000000242,0,ANIMAL,28,LA
2070024,95,1431.5850000002538,1,ANIMAL,34,LA
2070024,96,2281.179999999993,1,LOCATION,45,OL
2070024,97,5365.550000000454,0,ANIMAL,31,LA
2070024,98,5999.249000000011,miss,ANIMAL,25,LA
2070024,99,2777.879999999597,0,OBJECT,38,AO
2070024,100,5744.3400000002,1,LOCATION,30,OL
2070024,101,2174.3500000002095,1,OBJECT,8,AO
2070024,102,2278.3500000005006,0,LOCATION,48,OL
2070024,103,3521.780000000028,0,LOCATION,3,OL
2070024,104,3548.399999999674,0,LOCATION,12,OL
2070024,105,2832.3449999997974,1,OBJECT,5,AO
2070024,106,2962.414999999979,0,ANIMAL,37,LA
2070024,107,2190.1250000001164,1,OBJECT,17,AO
2070024,108,4166.175000000279,0,ANIMAL,19,LA
2070024,109,3214.9300000001094,0,LOCATION,39,OL
2070024,110,2666.304999999702,0,OBJECT,41,AO
2070024,111,5465.094999999623,1,ANIMAL,44,LA
2070024,112,2422.6650000000373,1,LOCATION,4,OL
2070024,113,3698.2100000004284,0,LOCATION,10,OL
2070024,114,2938.879999999772,0,LOCATION,40,OL
2070024,115,1569.439999999362,1,OBJECT,24,AO
2070024,116,1704.6300000002375,1,LOCATION,7,OL
2070024,117,2839.0300000001444,1,ANIMAL,32,LA
2070024,118,4846.175000000629,0,LOCATION,43,OL
2070024,119,4219.954999999609,1,OBJECT,18,AO
2070024,120,4986.995000000228,0,ANIMAL,8,LA
2070024,121,3151.3749999995343,1,LOCATION,49,OL
2070024,122,1338.325000000652,1,LOCATION,16,OL
2070024,123,1900.7750000000233,0,ANIMAL,41,LA
2070024,124,2171.9750000002095,0,OBJECT,12,AO
2070024,125,3502.214999999618,0,ANIMAL,50,LA
2070024,126,2697.910000000731,0,OBJECT,15,AO
2070024,127,3122.9950000005774,1,ANIMAL,53,LA
2070024,128,3296.5950000006706,0,LOCATION,46,OL
2070024,129,1689.8199999995995,1,ANIMAL,35,LA
2070024,130,1621.3349999998463,1,ANIMAL,2,LA
2070024,131,3485.0050000004703,0,LOCATION,22,OL
2070024,132,3949.3299999994924,1,ANIMAL,14,LA
2070024,133,1474.5000000003492,1,OBJECT,9,AO
2070024,134,3432.170000000042,0,LOCATION,25,OL
2070024,135,3300.4300000001676,0,OBJECT,30,AO
2070024,136,2344.935000000056,1,OBJECT,42,AO
2070024,137,1918.8400000002002,1,ANIMAL,23,LA
2070024,138,4040.7949999999255,0,ANIMAL,20,LA
2070024,139,3134.4599999992643,0,OBJECT,39,AO
2070024,140,1731.6449999999022,1,ANIMAL,17,LA
2070024,141,4355.000000000582,0,OBJECT,45,AO
2070024,142,2783.0349999994505,0,OBJECT,6,AO
2070024,143,2446.7800000001444,1,OBJECT,36,AO
2070024,144,3415.0800000006566,1,ANIMAL,29,LA
2070024,145,2144.314999999595,0,ANIMAL,47,LA
2070024,146,2152.200000000419,0,OBJECT,27,AO
2070024,147,3891.7750000001397,0,LOCATION,19,OL
2070024,148,4882.064999999828,0,OBJECT,3,AO
2070024,149,3957.3700000001118,0,OBJECT,54,AO
2070024,150,5835.364999999874,1,LOCATION,34,OL
2070024,151,3551.419999999809,1,LOCATION,52,OL
2070024,152,2789.5000000006985,1,ANIMAL,11,LA
2070024,153,3571.5799999997253,1,LOCATION,37,OL
2070024,154,3106.300000000396,1,LOCATION,13,OL
2070024,155,2951.5400000000373,0,ANIMAL,38,LA
2070024,156,2347.754999999772,1,OBJECT,51,AO
2070024,157,2530.3650000004563,1,LOCATION,1,OL
2070024,158,2513.400000000722,1,ANIMAL,26,LA
2070024,159,3061.20000000007,0,OBJECT,21,AO
2070024,160,2505.2049999994924,1,ANIMAL,5,LA
2070024,161,2263.6000000002095,0,LOCATION,28,OL
2070024,162,1647.0249999993248,1,OBJECT,33,AO
2070024,163,4037.9750000002095,1,OBJECT,48,AO
2070024,164,4014.2699999996694,0,LOCATION,31,OL
2070024,165,3391.9550000000745,1,LOCATION,37,AL
2070024,166,1416.1899999998277,1,ANIMAL,2,OA
2070024,167,1799.5149999997811,0,OBJECT,48,LO
2070024,168,1485.9750000005588,1,OBJECT,21,LO
2070024,169,1151.574999999837,1,LOCATION,7,AL
2070024,170,912.2750000006054,1,OBJECT,33,LO
2070024,171,2281.674999999348,0,LOCATION,49,AL
2070024,172,3679.9799999999814,0,LOCATION,40,AL
2070024,173,2423.2950000005076,1,OBJECT,6,LO
2070024,174,2779.7600000003586,1,OBJECT,54,LO
2070024,175,2419.095000000205,1,OBJECT,9,LO
2070024,176,2917.3799999998882,1,ANIMAL,38,OA
2070024,177,1405.6150000005728,1,ANIMAL,26,OA
2070024,178,2668.845000000205,0,LOCATION,52,AL
2070024,179,4692.219999999856,0,OBJECT,27,LO
2070024,180,2545.349999999511,0,ANIMAL,53,OA
2070024,181,2362.8349999999627,0,ANIMAL,20,OA
2070024,182,2488.739999999758,0,OBJECT,39,LO
2070024,183,1404.884999999893,1,ANIMAL,5,OA
2070024,184,2691.6049999999814,1,ANIMAL,23,OA
2070024,185,2588.694999999483,0,LOCATION,28,AL
2070024,186,3731.0100000003586,0,ANIMAL,14,OA
2070024,187,2943.54000000027,1,ANIMAL,35,OA
2070024,188,3449.4400000002934,0,OBJECT,30,LO
2070024,189,2863.589999999851,0,LOCATION,46,AL
2070024,190,1872.534999999567,0,OBJECT,42,LO
2070024,191,3000.4849999995204,0,LOCATION,25,AL
2070024,192,1774.0299999995623,1,LOCATION,34,AL
2070024,193,2396.0950000000885,1,LOCATION,4,AL
2070024,194,3219.175000000163,1,OBJECT,45,LO
2070024,195,1490.8750000004657,1,LOCATION,13,AL
2070024,196,1287.9350000002887,1,ANIMAL,8,OA
2070024,197,1196.1450000007171,1,ANIMAL,17,OA
2070024,198,1950.5699999999488,1,OBJECT,15,LO
2070024,199,2044.6449999999022,0,ANIMAL,47,OA
2070024,200,1340.470000000205,0,OBJECT,3,LO
2070024,201,2367.4749999999767,0,OBJECT,18,LO
2070024,202,2929.7699999996694,0,LOCATION,19,AL
2070024,203,1667.059999999823,1,OBJECT,36,LO
2070024,204,2076.81500000041,0,LOCATION,31,AL
2070024,205,2528.625,0,LOCATION,10,AL
2070024,206,4163.840000000084,1,LOCATION,43,AL
2070024,207,2379.9750000007916,0,ANIMAL,41,OA
2070024,208,4368.029999999562,0,ANIMAL,50,OA
2070024,209,2386.344999999972,1,OBJECT,12,LO
2070024,210,5603.919999999693,0,LOCATION,1,AL
2070024,211,1309.4849999998696,1,LOCATION,16,AL
2070024,212,4575.655000000494,1,ANIMAL,44,OA
2070024,213,1894.855000000447,1,ANIMAL,11,OA
2070024,214,1749.7799999990966,0,LOCATION,22,AL
2070024,215,2859.635000000708,0,ANIMAL,29,OA
2070024,216,1873.2050000000745,1,ANIMAL,32,OA
2070024,217,3346.7700000000186,0,OBJECT,51,LO
2070024,218,1316.0249999999069,1,OBJECT,24,LO
2070024,219,2972.0250000001397,0,LOCATION,44,AL
2070024,220,3757.3349999992643,0,OBJECT,10,LO
2070024,221,4633.64000000013,0,OBJECT,40,LO
2070024,222,1479.7799999995623,1,ANIMAL,12,OA
2070024,223,4594.215000000084,0,ANIMAL,39,OA
2070024,224,1857.404999999795,1,LOCATION,5,AL
2070024,225,2444.2950000001583,1,OBJECT,25,LO
2070024,226,3044.4900000002235,1,LOCATION,23,AL
2070024,227,3888.9799999995157,0,LOCATION,50,AL
2070024,228,5999.249000000069,miss,ANIMAL,54,OA
2070024,229,2593.1700000001583,1,OBJECT,7,LO
2070024,230,2351.8100000002887,1,ANIMAL,15,OA
2070024,231,3226.0649999997113,0,LOCATION,11,AL
2070024,232,2037.1700000003912,0,OBJECT,43,LO
2070024,233,5602.385000000009,1,OBJECT,13,LO
2070024,234,2718.820000000065,1,LOCATION,14,AL
2070024,235,2814.779999999795,0,OBJECT,28,LO
2070024,236,2954.8899999998976,0,OBJECT,22,LO
2070024,237,2092.7050000000745,0,OBJECT,31,LO
2070024,238,2418.0350000006147,1,LOCATION,47,AL
2070024,239,1173.4899999999907,1,ANIMAL,36,OA
2070024,240,4169.64000000013,1,ANIMAL,27,OA
2070024,241,5068.165000000503,1,LOCATION,8,AL
2070024,242,2605.7450000008103,0,ANIMAL,48,OA
2070024,243,2018.719999999972,0,LOCATION,29,AL
2070024,244,3275.6399999998976,0,OBJECT,19,LO
2070024,245,2716.7650000001304,1,ANIMAL,6,OA
2070024,246,1602.380000000354,1,ANIMAL,24,OA
2070024,247,2519.554999999935,1,OBJECT,16,LO
2070024,248,1561.7000000001863,1,LOCATION,2,AL
2070024,249,1483.9150000007357,1,ANIMAL,18,OA
2070024,250,1915.9749999998603,1,LOCATION,20,AL
2070024,251,2005.404999999795,0,OBJECT,37,LO
2070024,252,1970.3300000000745,0,ANIMAL,3,OA
2070024,253,1914.410000000149,0,ANIMAL,42,OA
2070024,254,1504.0500000005122,0,ANIMAL,30,OA
2070024,255,2030.7699999993201,0,ANIMAL,21,OA
2070024,256,2357.820000000065,0,LOCATION,53,AL
2070024,257,1928.434999999823,0,LOCATION,41,AL
2070024,258,2419.885000000242,0,LOCATION,26,AL
2070024,259,2741.5149999996647,0,OBJECT,49,LO
2070024,260,2256.6999999999534,1,LOCATION,17,AL
2070024,261,1967.094999999972,0,ANIMAL,45,OA
2070024,262,1719.8799999996554,1,LOCATION,35,AL
2070024,263,3048.464999999851,1,ANIMAL,33,OA
2070024,264,1751.4149999998044,1,ANIMAL,51,OA
2070024,265,2138.9900000002235,0,LOCATION,32,AL
2070024,266,3276.0049999998882,0,OBJECT,52,LO
2070024,267,1807.515000000596,1,OBJECT,4,LO
2070024,268,1555.5499999998137,1,OBJECT,34,LO
2070024,269,2379.515000000596,0,OBJECT,46,LO
2070024,270,1405.14500000095,1,ANIMAL,9,OA
2070024,271,1722.1849999995902,1,OBJECT,1,LO
2070024,272,2732.2750000003725,0,LOCATION,38,AL
2070024,273,1950.7599999997765,0,ANIMAL,37,OA
2070024,274,1773.6999999997206,1,ANIMAL,13,OA
2070024,275,2328.899999999441,1,OBJECT,35,LO
2070024,276,2345.1450000004843,1,ANIMAL,25,OA
2070024,277,1606.5300000002608,1,OBJECT,5,LO
2070024,278,2458.5849999999627,0,LOCATION,39,AL
2070024,279,3333.204999999609,0,ANIMAL,31,OA
2070024,280,1835.054999999702,1,OBJECT,47,LO
2070024,281,2034.7450000001118,1,LOCATION,24,AL
2070024,282,2890.7800000007264,0,LOCATION,54,AL
2070024,283,2022.25,0,LOCATION,45,AL
2070024,284,3120.1049999999814,0,LOCATION,51,AL
2070024,285,4161.445000000764,1,OBJECT,41,LO
2070024,286,3524.100000000559,1,LOCATION,27,AL
2070024,287,2112.2350000003353,1,ANIMAL,49,OA
2070024,288,2844.235000000801,1,LOCATION,12,AL
2070024,289,1785.75,1,LOCATION,33,AL
2070024,290,2839.329999999609,0,ANIMAL,7,OA
2070024,291,3434.0699999993667,0,ANIMAL,1,OA
2070024,292,3624.9399999994785,0,ANIMAL,4,OA
2070024,293,5519.125,1,LOCATION,9,AL
2070024,294,1590.570000000298,0,OBJECT,26,LO
2070024,295,1600.1299999998882,0,LOCATION,30,AL
2070024,296,1789.140000000596,1,LOCATION,6,AL
2070024,297,2011.3299999996088,1,ANIMAL,46,OA
2070024,298,1675.035000000149,1,OBJECT,29,LO
2070024,299,1517.2499999995343,1,LOCATION,48,AL
2070024,300,1047.7199999997392,1,ANIMAL,16,OA
2070024,301,2597.179999999702,1,OBJECT,11,LO
2070024,302,1798.790000000503,0,ANIMAL,52,OA
2070024,303,2300.510000000242,0,OBJECT,8,LO
2070024,304,2590.574999999255,0,OBJECT,53,LO
2070024,305,4474.899999999907,0,LOCATION,18,AL
2070024,306,5999.249000000302,miss,LOCATION,3,AL
2070024,307,1396.8400000003166,0,ANIMAL,40,OA
2070024,308,2090.385000000708,1,ANIMAL,43,OA
2070024,309,3173.100000000093,1,LOCATION,36,AL
2070024,310,1767.0850000004284,1,LOCATION,15,AL
2070024,311,1274.140000000596,1,ANIMAL,10,OA
2070024,312,1689.9399999990128,1,OBJECT,17,LO
2070024,313,3571.1550000007264,0,OBJECT,50,LO
2070024,314,2893.7949999999255,1,OBJECT,44,LO
2070024,315,2641.325000000652,0,OBJECT,38,LO
2070024,316,1406.4950000005774,1,ANIMAL,34,OA
2070024,317,1305.6350000007078,1,OBJECT,32,LO
2070024,318,2008.4249999998137,0,OBJECT,20,LO
2070024,319,1019.3800000008196,1,OBJECT,2,LO
2070024,320,1984.3799999994226,1,OBJECT,14,LO
2070024,321,2705.614999999758,1,ANIMAL,28,OA
2070024,322,1876.2999999998137,0,LOCATION,42,AL
2070024,323,1801.9750000005588,0,OBJECT,23,LO
2070024,324,2517.58000000054,1,ANIMAL,22,OA
2070024,325,1588.3899999996647,0,ANIMAL,19,OA
2070024,326,1673.9349999995902,1,LOCATION,21,AL
2069383,3,3467.8899999707937,1,OBJECT,37,AO
2069383,4,5999.924999999996,miss,LOCATION,35,OL
2069383,5,3019.3750001490116,0,OBJECT,52,AO
2069383,6,3695.5500000622123,1,ANIMAL,6,LA
2069383,7,4096.6700001154095,1,LOCATION,47,OL
2069383,8,3085.304999956861,1,OBJECT,13,AO
2069383,9,2768.8500001095235,1,ANIMAL,21,LA
2069383,10,3308.71000001207,0,ANIMAL,27,LA
2069383,11,2508.7150000035763,1,OBJECT,7,AO
2069383,12,4128.59999993816,0,ANIMAL,45,LA
2069383,13,3338.694999925792,1,OBJECT,46,AO
2069383,14,2877.3700001183897,1,LOCATION,2,OL
2069383,15,2978.3999999053776,1,LOCATION,41,OL
2069383,16,2416.45499994047,0,ANIMAL,54,LA
2069383,17,3070.3700000885874,0,OBJECT,19,AO
2069383,18,3104.8749999608845,1,ANIMAL,12,LA
2069383,19,2810.1349999196827,1,LOCATION,5,OL
2069383,20,3656.965000089258,1,LOCATION,23,OL
2069383,21,3386.5549999754876,0,ANIMAL,24,LA
2069383,22,1634.7550000064075,1,OBJECT,40,AO
2069383,23,3868.430000031367,1,ANIMAL,9,LA
2069383,24,4047.6999999955297,1,OBJECT,28,AO
2069383,25,4095.0299999676645,0,LOCATION,8,OL
2069383,26,3755.549999885261,0,OBJECT,16,AO
2069383,27,2913.359999889508,0,OBJECT,1,AO
2069383,28,3809.2700000852346,0,ANIMAL,39,LA
2069383,29,2713.4949997998774,1,OBJECT,49,AO
2069383,30,1595.4499999061227,1,LOCATION,38,OL
2069383,31,3168.7149999197572,0,ANIMAL,36,LA
2069383,32,3662.4050000682473,0,LOCATION,26,OL
2069383,33,5137.994999997318,0,LOCATION,32,OL
2069383,34,2741.759999888018,0,ANIMAL,33,LA
2069383,35,3376.325000077486,0,LOCATION,14,OL
2069383,36,3424.3100001476705,1,LOCATION,53,OL
2069383,37,2545.7000001333654,0,ANIMAL,48,LA
2069383,38,2763.014999916777,1,OBJECT,25,AO
2069383,39,4998.7200000323355,1,OBJECT,31,AO
2069383,40,4768.644999945536,1,ANIMAL,3,LA
2069383,41,4171.06999992393,1,OBJECT,4,AO
2069383,42,230.75999994762242,0,ANIMAL,30,LA
2069383,43,4882.914999965578,1,OBJECT,10,AO
2069383,44,4691.454999847338,1,ANIMAL,15,LA
2069383,45,3971.635000081733,0,LOCATION,50,OL
2069383,46,3864.064999856055,1,LOCATION,29,OL
2069383,47,3538.9749999158084,1,OBJECT,43,AO
2069383,48,3787.6150000374764,0,LOCATION,44,OL
2069383,49,4210.574999917299,1,LOCATION,20,OL
2069383,50,3517.119999974966,1,ANIMAL,42,LA
2069383,51,3937.9249999765307,1,LOCATION,17,OL
2069383,52,4332.620000001043,1,LOCATION,11,OL
2069383,53,3747.9700001422316,1,OBJECT,34,AO
2069383,54,5055.6099999230355,0,ANIMAL,51,LA
2069383,55,5380.2499999292195,1,ANIMAL,18,LA
2069383,56,4769.314999924973,0,OBJECT,22,AO
2069383,57,4551.049999892712,0,ANIMAL,49,LA
2069383,58,4438.6849999427795,0,OBJECT,17,AO
2069383,59,2864.8650001268834,0,ANIMAL,34,LA
2069383,60,5272.9499998968095,0,ANIMAL,31,LA
2069383,61,2086.284999968484,1,ANIMAL,37,LA
2069383,62,2770.2850000932813,1,OBJECT,38,AO
2069383,63,2953.5600000526756,0,LOCATION,36,OL
2069383,64,2922.8050000965595,0,LOCATION,27,OL
2069383,65,2144.1550001036376,1,LOCATION,30,OL
2069383,66,3014.5049998536706,0,OBJECT,50,AO
2069383,67,2695.934999966994,0,ANIMAL,19,LA
2069383,68,3196.555000031367,0,OBJECT,23,AO
2069383,69,3429.939999943599,1,OBJECT,29,AO
2069383,70,3783.870000159368,0,OBJECT,5,AO
2069383,71,4261.570000089705,1,ANIMAL,1,LA
2069383,72,3397.4700001999736,1,ANIMAL,28,LA
2069383,73,3667.314999969676,0,LOCATION,3,OL
2069383,74,4829.0049999486655,1,LOCATION,9,OL
2069383,75,3343.5750000644475,0,LOCATION,54,OL
2069383,76,4462.074999930337,0,OBJECT,32,AO
2069383,77,4120.314999949187,0,OBJECT,35,AO
2069383,78,5240.540000144392,1,LOCATION,48,OL
2069383,79,5689.474999904633,0,OBJECT,53,AO
2069383,80,2954.0150000248104,0,OBJECT,41,AO
2069383,81,2571.429999778047,1,LOCATION,6,OL
2069383,82,2877.979999873787,0,OBJECT,11,AO
2069383,83,3016.5250001009554,1,ANIMAL,40,LA
2069383,84,3885.179999982938,1,OBJECT,8,AO
2069383,85,3164.8049999494106,1,LOCATION,42,OL
2069383,86,2393.859999952838,1,ANIMAL,13,LA
2069383,87,3879.725000122562,1,OBJECT,20,AO
2069383,88,3670.3950001392514,1,LOCATION,33,OL
2069383,89,2712.9200000781566,1,LOCATION,12,OL
2069383,90,4163.815000094473,1,OBJECT,2,AO
2069383,91,3905.060000019148,1,LOCATION,24,OL
2069383,92,2472.26499998942,0,ANIMAL,52,LA
2069383,93,2393.8299999572337,0,LOCATION,21,OL
2069383,94,4068.0400000419468,1,ANIMAL,22,LA
2069383,95,3733.0300000030547,0,OBJECT,26,AO
2069383,96,3860.785000026226,0,ANIMAL,4,LA
2069383,97,5626.859999960288,0,LOCATION,18,OL
2069383,98,4785.680000204593,0,ANIMAL,16,LA
2069383,99,4821.444999892265,1,LOCATION,15,OL
2069383,100,2855.459999991581,1,OBJECT,47,AO
2069383,101,4277.059999993071,0,ANIMAL,43,LA
2069383,102,4115.350000094622,1,LOCATION,39,OL
2069383,103,1934.584999922663,0,ANIMAL,25,LA
2069383,104,3596.570000052452,0,LOCATION,51,OL
2069383,105,3548.799999989569,1,OBJECT,44,AO
2069383,106,1643.5800001490861,1,ANIMAL,7,LA
2069383,107,2939.3800001125783,1,LOCATION,45,OL
2069383,108,4034.429999999702,0,OBJECT,14,AO
2069383,109,2623.2799999415874,0,ANIMAL,10,LA
2069383,110,2255.810000002384,1,ANIMAL,46,LA
2069383,111,3462.2899999376386,0,OBJECT,54,AO
2069383,112,2421.1750000249594,1,LOCATION,28,OL
2069383,113,2385.215000016615,1,LOCATION,40,OL
2069383,114,3029.945000074804,0,LOCATION,52,OL
2069383,115,2447.039999999106,0,OBJECT,36,AO
2069383,116,3586.549999890849,0,LOCATION,25,OL
2069383,117,3392.390000168234,1,LOCATION,37,OL
2069383,118,3065.225000027567,0,LOCATION,19,OL
2069383,119,3603.6049998365343,1,ANIMAL,23,LA
2069383,120,4982.825000071898,0,ANIMAL,38,LA
2069383,121,4837.365000043064,0,ANIMAL,41,LA
2069383,122,3696.955000050366,0,ANIMAL,29,LA
2069383,123,3120.6499999389052,1,LOCATION,4,OL
2069383,124,3905.209999997169,1,OBJECT,9,AO
2069383,125,1787.8000000491738,1,OBJECT,12,AO
2069383,126,2806.659999769181,0,ANIMAL,32,LA
2069383,127,3068.544999929145,1,LOCATION,34,OL
2069383,128,2943.650000030175,1,ANIMAL,50,LA
2069383,129,3844.4900000467896,0,ANIMAL,26,LA
2069383,130,2913.4550001472235,1,OBJECT,42,AO
2069383,131,4469.3249999545515,0,OBJECT,30,AO
2069383,132,2501.4049999881536,1,LOCATION,13,OL
2069383,133,2810.5999999679625,1,OBJECT,51,AO
2069383,134,2092.5100001040846,0,OBJECT,21,AO
2069383,135,5122.429999988526,0,ANIMAL,53,LA
2069383,136,2054.929999867454,1,OBJECT,18,AO
2069383,137,3310.8749999664724,0,LOCATION,16,OL
2069383,138,3705.250000115484,0,ANIMAL,5,LA
2069383,139,1832.0400000084192,1,OBJECT,15,AO
2069383,140,4921.6150001157075,0,OBJECT,24,AO
2069383,141,2360.035000136122,1,LOCATION,46,OL
2069383,142,4518.380000023171,0,LOCATION,1,OL
2069383,143,5110.0850000511855,1,OBJECT,48,AO
2069383,144,5392.045000102371,1,LOCATION,10,OL
2069383,145,4462.654999922961,0,LOCATION,43,OL
2069383,146,5245.424999855459,0,OBJECT,27,AO
2069383,147,3712.169999955222,1,ANIMAL,2,LA
2069383,148,4850.919999880716,0,LOCATION,31,OL
2069383,149,5385.139999911189,1,OBJECT,39,AO
2069383,150,4045.3749999869615,1,ANIMAL,35,LA
2069383,151,4600.429999874905,1,OBJECT,6,AO
2069383,152,4695.400000084192,1,ANIMAL,8,LA
2069383,153,3672.084999969229,1,LOCATION,7,OL
2069383,154,5102.190000005066,0,OBJECT,33,AO
2069383,155,2298.0800000950694,1,ANIMAL,47,LA
2069383,156,4435.834999894723,1,ANIMAL,11,LA
2069383,157,2730.639999965206,1,ANIMAL,14,LA
2069383,158,2317.754999967292,1,ANIMAL,20,LA
2069383,159,5999.939000000013,miss,LOCATION,49,OL
2069383,160,3965.1899999007583,1,LOCATION,22,OL
2069383,161,4634.349999949336,0,OBJECT,45,AO
2069383,162,3883.820000104606,1,OBJECT,3,AO
2069383,163,3511.604999890551,0,ANIMAL,44,LA
2069383,164,4602.650000015274,1,ANIMAL,17,LA
2069383,165,2425.569999963045,1,ANIMAL,11,OA
2069383,166,2063.944999827072,1,LOCATION,49,AL
2069383,167,3644.249999895692,0,LOCATION,34,AL
2069383,168,5612.734999973327,1,OBJECT,54,LO
2069383,169,2709.3199999071658,0,ANIMAL,23,OA
2069383,170,2490.269999951124,1,ANIMAL,8,OA
2069383,171,2455.3849999792874,1,ANIMAL,20,OA
2069383,172,2734.6749999560416,1,ANIMAL,2,OA
2069383,173,3963.6899998877198,1,OBJECT,24,LO
2069383,174,3358.860000036657,0,OBJECT,30,LO
2069383,175,2411.4899998530746,1,LOCATION,46,AL
2069383,176,2942.604999989271,1,LOCATION,16,AL
2069383,177,5765.905000036582,1,ANIMAL,26,OA
2069383,178,4184.679999947548,0,OBJECT,33,LO
2069383,179,3934.495000168681,0,LOCATION,19,AL
2069383,180,2607.585000107065,1,LOCATION,1,AL
2069383,181,4777.664999943227,0,ANIMAL,29,OA
2069383,182,3697.4450000561774,1,ANIMAL,44,OA
2069383,183,4838.579999981448,1,OBJECT,39,LO
2069383,184,2227.4949999991804,1,OBJECT,15,LO
2069383,185,5317.494999850169,0,LOCATION,10,AL
2069383,186,3281.184999970719,1,LOCATION,28,AL
2069383,187,4668.224999913946,0,ANIMAL,53,OA
2069383,188,4017.2850000672042,0,ANIMAL,5,OA
2069383,189,2565.8400000538677,0,LOCATION,31,AL
2069383,190,2997.504999861121,1,ANIMAL,35,OA
2069383,191,4858.405000064522,0,LOCATION,43,AL
2069383,192,1895.7399998325855,1,ANIMAL,47,OA
2069383,193,4392.814999911934,0,ANIMAL,14,OA
2069383,194,2369.2799999844283,1,LOCATION,7,AL
2069383,195,4422.86999989301,1,ANIMAL,38,OA
2069383,196,2031.8699998315424,1,OBJECT,6,LO
2069383,197,4634.649999905378,0,ANIMAL,50,OA
2069383,198,5378.475000150502,1,OBJECT,3,LO
2069383,199,5878.53500014171,0,LOCATION,22,AL
2069383,200,5999.985000000102,miss,LOCATION,52,AL
2069383,201,3503.379999892786,1,ANIMAL,41,OA
2069383,202,4703.165000071749,0,OBJECT,21,LO
2069383,203,4042.064999928698,0,LOCATION,4,AL
2069383,204,2884.529999922961,0,OBJECT,48,LO
2069383,205,2592.274999944493,0,LOCATION,40,AL
2069383,206,4066.8949999380857,1,OBJECT,18,LO
2069383,207,3955.219999887049,1,LOCATION,37,AL
2069383,208,3124.4450001977384,1,OBJECT,51,LO
2069383,209,1581.6299999132752,1,OBJECT,45,LO
2069383,210,3731.7150000017136,1,LOCATION,25,AL
2069383,211,1975.5250001326203,1,OBJECT,42,LO
2069383,212,3983.0400000791997,1,ANIMAL,17,OA
2069383,213,4150.404999963939,1,OBJECT,36,LO
2069383,214,5175.999999977648,0,OBJECT,27,LO
2069383,215,2233.4950000513345,1,OBJECT,12,LO
2069383,216,2136.420000111684,1,OBJECT,9,LO
2069383,217,3534.8799999337643,1,ANIMAL,32,OA
2069383,218,1883.9249999728054,1,LOCATION,13,AL
2069383,219,4199.379999889061,0,ANIMAL,54,OA
2069383,220,3694.4099999964237,0,ANIMAL,33,OA
2069383,221,2573.894999921322,1,ANIMAL,9,OA
2069383,222,2792.230000020936,1,LOCATION,17,AL
2069383,223,3100.675000110641,1,LOCATION,11,AL
2069383,224,2040.7499999273568,1,ANIMAL,36,OA
2069383,225,1675.5250000860542,0,ANIMAL,51,OA
2069383,226,3997.704999987036,0,LOCATION,26,AL
2069383,227,4884.01999999769,1,ANIMAL,24,OA
2069383,228,3643.049999838695,0,OBJECT,28,LO
2069383,229,3229.065000079572,1,OBJECT,37,LO
2069383,230,4020.7250001840293,1,LOCATION,35,AL
2069383,231,4267.3049999866635,1,OBJECT,52,LO
2069383,232,2471.6399998869747,1,LOCATION,38,AL
2069383,233,3909.1199999675155,1,OBJECT,1,LO
2069383,234,4550.969999982044,0,LOCATION,20,AL
2069383,235,2674.0399999544024,0,ANIMAL,30,OA
2069383,236,2399.0849999245256,1,ANIMAL,48,OA
2069383,237,1754.5199999585748,1,OBJECT,7,LO
2069383,238,3363.510000053793,1,LOCATION,47,AL
2069383,239,4136.584999971092,1,ANIMAL,39,OA
2069383,240,2769.1199998371303,1,ANIMAL,42,OA
2069383,241,4083.6050000507385,1,LOCATION,32,AL
2069383,242,3592.1049998141825,1,LOCATION,5,AL
2069383,243,5169.2699999548495,0,OBJECT,31,LO
2069383,244,3350.8399999700487,1,OBJECT,4,LO
2069383,245,3694.5399998221546,1,OBJECT,25,LO
2069383,246,3510.475000133738,1,ANIMAL,6,OA
2069383,247,3270.2399999834597,0,OBJECT,16,LO
2069383,248,3519.5850001182407,1,LOCATION,50,AL
2069383,249,1713.359999936074,1,ANIMAL,12,OA
2069383,250,4437.195000005886,0,ANIMAL,27,OA
2069383,251,4223.3950002118945,0,OBJECT,10,LO
2069383,252,4814.035000046715,0,OBJECT,19,LO
2069383,253,4654.989999951795,0,LOCATION,14,AL
2069383,254,2371.5249998494983,1,OBJECT,13,LO
2069383,255,3759.635000023991,0,LOCATION,23,AL
2069383,256,2408.729999791831,0,OBJECT,22,LO
2069383,257,1793.0600000545382,0,ANIMAL,21,OA
2069383,258,2677.594999782741,0,LOCATION,29,AL
2069383,259,1927.2600000258535,0,LOCATION,44,AL
2069383,260,1821.7200001236051,1,ANIMAL,18,OA
2069383,261,2380.295000039041,1,ANIMAL,3,OA
2069383,262,1567.900000140071,1,OBJECT,34,LO
2069383,263,3480.5299998261034,1,LOCATION,2,AL
2069383,264,3068.534999853,0,OBJECT,43,LO
2069383,265,3221.2099998723716,1,OBJECT,49,LO
2069383,266,4574.564999900758,0,ANIMAL,45,OA
2069383,267,3011.634999886155,1,OBJECT,46,LO
2069383,268,1629.6149999834597,0,LOCATION,41,AL
2069383,269,1867.50499997288,1,OBJECT,40,LO
2069383,270,1608.310000039637,1,ANIMAL,15,OA
2069383,271,4472.710000118241,1,LOCATION,53,AL
2069383,272,5041.830000001937,1,LOCATION,8,AL
2069383,273,2978.564999997616,1,ANIMAL,28,OA
2069383,274,4358.615000033751,1,ANIMAL,10,OA
2069383,275,2362.154999980703,0,ANIMAL,31,OA
2069383,276,2563.6100000701845,1,OBJECT,20,LO
2069383,277,2933.394999941811,0,LOCATION,33,AL
2069383,278,1952.9299999121577,1,ANIMAL,4,OA
2069383,279,2747.470000060275,0,OBJECT,14,LO
2069383,280,1974.1199999116361,1,OBJECT,11,LO
2069383,281,4088.190000038594,1,OBJECT,17,LO
2069383,282,2302.9999998398125,1,LOCATION,6,AL
2069383,283,2215.8399999607354,1,OBJECT,8,LO
2069383,284,3089.7099999710917,0,LOCATION,3,AL
2069383,285,4488.640000112355,1,OBJECT,23,LO
2069383,286,3603.4399999771267,0,LOCATION,39,AL
2069383,287,3206.609999993816,1,ANIMAL,49,OA
2069383,288,3604.909999994561,0,ANIMAL,22,OA
2069383,289,3404.34499992989,0,OBJECT,44,LO
2069383,290,2964.7000001277775,0,OBJECT,50,LO
2069383,291,2892.075000097975,0,LOCATION,48,AL
2069383,292,1504.414999857545,0,ANIMAL,25,OA
2069383,293,1768.6449999455363,0,LOCATION,54,AL
2069383,294,1240.4350000433624,0,LOCATION,27,AL
2069383,295,2512.635000050068,1,OBJECT,5,LO
2069383,296,3119.724999880418,1,ANIMAL,43,OA
2069383,297,1455.9349999763072,0,LOCATION,30,AL
2069383,298,1986.8999999016523,1,ANIMAL,7,OA
2069383,299,2095.310000004247,1,LOCATION,12,AL
2069383,300,3968.1949999649078,1,OBJECT,26,LO
2069383,301,2954.440000001341,1,LOCATION,9,AL
2069383,302,1484.070000005886,0,LOCATION,21,AL
2069383,303,3323.6249999608845,1,OBJECT,53,LO
2069383,304,1570.175000000745,1,LOCATION,15,AL
2069383,305,2883.625000016764,1,OBJECT,2,LO
2069383,306,1652.985000051558,1,ANIMAL,37,OA
2069383,307,1898.8550000358373,1,OBJECT,47,LO
2069383,308,3164.0149999875575,1,OBJECT,35,LO
2069383,309,5259.159999899566,1,LOCATION,36,AL
2069383,310,1965.3849999886006,1,ANIMAL,34,OA
2069383,311,3215.055000036955,0,ANIMAL,16,OA
2069383,312,1671.7350000981241,0,ANIMAL,52,OA
2069383,313,4681.940000038594,0,OBJECT,32,LO
2069383,314,1778.175000101328,1,ANIMAL,40,OA
2069383,315,1707.1400000713766,1,LOCATION,24,AL
2069383,316,2414.2799999099225,0,ANIMAL,1,OA
2069383,317,3656.209999928251,0,LOCATION,42,AL
2069383,318,1784.070000052452,1,ANIMAL,46,OA
2069383,319,4057.279999833554,0,ANIMAL,19,OA
2069383,320,2265.605000080541,1,OBJECT,29,LO
2069383,321,2401.1600001249462,0,LOCATION,51,AL
2069383,322,2732.8099999576807,1,OBJECT,38,LO
2069383,323,2274.5499999728054,1,OBJECT,41,LO
2069383,324,2634.9399997852743,0,LOCATION,45,AL
2069383,325,5050.714999902993,1,LOCATION,18,AL
2069383,326,5999.902000000002,miss,ANIMAL,13,OA
2069368,3,3928.634999996575,1,ANIMAL,24,LA
2069368,4,3177.674999998999,0,ANIMAL,33,LA
2069368,5,2743.060000000696,0,LOCATION,5,OL
2069368,6,4248.630000001867,0,OBJECT,10,AO
2069368,7,3027.060000000347,0,ANIMAL,9,LA
2069368,8,2850.9200000044075,1,ANIMAL,48,LA
2069368,9,5784.915000003821,0,LOCATION,8,OL
2069368,10,3063.594999999623,1,LOCATION,44,OL
2069368,11,4525.154999995721,0,OBJECT,16,AO
2069368,12,2872.914999999921,1,OBJECT,46,AO
2069368,13,4154.414999997243,0,OBJECT,22,AO
2069368,14,4183.304999998654,0,ANIMAL,51,LA
2069368,15,5165.424999999232,1,OBJECT,28,AO
2069368,16,2891.830000000482,1,OBJECT,13,AO
2069368,17,1775.405000000319,1,OBJECT,43,AO
2069368,18,2705.164999999397,1,LOCATION,35,OL
2069368,19,3915.30999999668,0,LOCATION,20,OL
2069368,20,3201.45500000217,1,LOCATION,17,OL
2069368,21,2691.2149999989197,1,ANIMAL,15,LA
2069368,22,2883.929999996326,0,LOCATION,14,OL
2069368,23,3937.9750000007334,0,ANIMAL,6,LA
2069368,24,2677.3750000065775,1,ANIMAL,36,LA
2069368,25,4792.215000001306,0,OBJECT,1,AO
2069368,26,3244.1800000015064,1,ANIMAL,54,LA
2069368,27,3091.7199999967124,0,LOCATION,32,OL
2069368,28,2244.6649999983492,0,LOCATION,50,OL
2069368,29,3409.654999995837,1,OBJECT,40,AO
2069368,30,3334.020000002056,0,ANIMAL,21,LA
2069368,31,3779.2350000017905,0,LOCATION,11,OL
2069368,32,5565.525000005437,1,LOCATION,2,OL
2069368,33,2363.3350000018254,0,OBJECT,7,AO
2069368,34,4612.780000003113,1,OBJECT,25,AO
2069368,35,2607.4200000002747,1,ANIMAL,30,LA
2069368,36,1908.1200000000536,0,LOCATION,53,OL
2069368,37,1750.3349999969942,1,LOCATION,41,OL
2069368,38,2284.719999996014,0,OBJECT,31,AO
2069368,39,3062.0599999965634,0,OBJECT,4,AO
2069368,40,1796.329999997397,0,OBJECT,34,AO
2069368,41,1939.4699999975273,0,LOCATION,26,OL
2069368,42,2455.8949999991455,1,OBJECT,52,AO
2069368,43,4640.919999998005,1,ANIMAL,12,LA
2069368,44,3906.7849999992177,0,LOCATION,23,OL
2069368,45,1248.2400000008056,0,ANIMAL,3,LA
2069368,46,913.9599999980419,0,ANIMAL,18,LA
2069368,47,628.8899999999558,0,LOCATION,38,OL
2069368,48,698.8349999955972,0,ANIMAL,45,LA
2069368,49,738.3350000018254,1,LOCATION,29,OL
2069368,50,908.6549999992712,0,ANIMAL,42,LA
2069368,51,1002.28000000061,0,OBJECT,19,AO
2069368,52,977.2650000013527,0,OBJECT,37,AO
2069368,53,396.0799999986193,1,ANIMAL,27,LA
2069368,54,1484.454999997979,0,OBJECT,49,AO
2069368,55,2841.6100000031292,1,LOCATION,47,OL
2069368,56,1883.2299999994575,1,ANIMAL,39,LA
2069368,57,3433.5399999981746,1,LOCATION,39,OL
2069368,58,3962.644999999611,1,OBJECT,5,AO
2069368,59,2363.115000000107,0,ANIMAL,1,LA
2069368,60,983.8850000014645,0,OBJECT,20,AO
2069368,61,1770.924999997078,1,OBJECT,17,AO
2069368,62,1296.5650000041933,0,OBJECT,35,AO
2069368,63,825.2449999999953,0,LOCATION,18,OL
2069368,64,820.7550000006449,0,OBJECT,32,AO
2069368,65,1740.4800000003888,1,LOCATION,15,OL
2069368,66,1453.174999995099,0,LOCATION,9,OL
2069368,67,2348.2850000000326,1,LOCATION,42,OL
2069368,68,1579.795000005106,0,OBJECT,29,AO
2069368,69,642.664999999397,0,LOCATION,45,OL
2069368,70,471.51499999745283,0,OBJECT,38,AO
2069368,71,347.60000000096625,1,ANIMAL,10,LA
2069368,72,515.9700000003795,0,LOCATION,36,OL
2069368,73,654.3949999977485,1,LOCATION,12,OL
2069368,74,348.52999999566237,0,OBJECT,8,AO
2069368,75,537.1649999942747,0,OBJECT,26,AO
2069368,76,792.3150000060559,0,OBJECT,41,AO
2069368,77,540.3749999968568,0,OBJECT,11,AO
2069368,78,398.48499999789055,0,ANIMAL,34,LA
2069368,79,483.5000000020955,0,ANIMAL,4,LA
2069368,80,932.6699999946868,0,ANIMAL,40,LA
2069368,81,481.83000000426546,0,ANIMAL,43,LA
2069368,82,440.51000000035856,0,LOCATION,51,OL
2069368,83,552.1699999953853,1,LOCATION,48,OL
2069368,84,526.4349999997648,0,ANIMAL,7,LA
2069368,85,584.6100000053411,0,LOCATION,24,OL
2069368,86,583.9199999973061,0,ANIMAL,49,LA
2069368,87,567.1299999958137,0,ANIMAL,13,LA
2069368,88,474.72999999445165,0,ANIMAL,37,LA
2069368,89,570.545000002312,0,LOCATION,6,OL
2069368,90,773.3850000004168,1,ANIMAL,22,LA
2069368,91,2512.9999999990105,0,OBJECT,53,AO
2069368,92,927.190000002156,0,OBJECT,50,AO
2069368,93,968.5549999994691,1,ANIMAL,46,LA
2069368,94,885.9149999989313,0,LOCATION,30,OL
2069368,95,4200.105000003532,1,LOCATION,54,OL
2069368,96,1159.7249999977066,0,ANIMAL,52,LA
2069368,97,1388.8000000006286,0,LOCATION,21,OL
2069368,98,1209.5550000012736,1,LOCATION,33,OL
2069368,99,1113.0750000011176,1,ANIMAL,16,LA
2069368,100,2019.4199999968987,0,LOCATION,3,OL
2069368,101,3104.1499999992084,0,OBJECT,14,AO
2069368,102,1306.3299999994342,0,OBJECT,44,AO
2069368,103,1658.2649999982095,0,ANIMAL,28,LA
2069368,104,800.82499999844,0,ANIMAL,25,LA
2069368,105,2201.7199999972945,1,OBJECT,2,AO
2069368,106,3195.435000001453,0,LOCATION,27,OL
2069368,107,1836.1500000028173,1,OBJECT,47,AO
2069368,108,1216.1199999973178,0,ANIMAL,19,LA
2069368,109,1050.504999999248,0,ANIMAL,31,LA
2069368,110,1844.36000000278,1,OBJECT,23,AO
2069368,111,1900.854999999865,1,ANIMAL,14,LA
2069368,112,1158.674999998766,1,LOCATION,19,OL
2069368,113,3084.9699999962468,1,ANIMAL,5,LA
2069368,114,1170.8849999995437,0,OBJECT,33,AO
2069368,115,1195.4600000026403,1,ANIMAL,2,LA
2069368,116,1014.1750000038883,0,LOCATION,28,OL
2069368,117,1036.549999997078,1,ANIMAL,47,LA
2069368,118,2336.989999996149,1,ANIMAL,32,LA
2069368,119,750.2599999934318,0,OBJECT,42,AO
2069368,120,737.1199999979581,0,ANIMAL,26,LA
2069368,121,1003.8800000038464,0,OBJECT,24,AO
2069368,122,839.7750000003725,0,ANIMAL,23,LA
2069368,123,1635.8199999958742,0,LOCATION,1,OL
2069368,124,1668.2700000019395,0,LOCATION,31,OL
2069368,125,751.9950000059907,0,ANIMAL,20,LA
2069368,126,982.5700000001234,0,LOCATION,52,OL
2069368,127,618.3099999980186,0,ANIMAL,8,LA
2069368,128,2965.5649999986053,0,ANIMAL,41,LA
2069368,129,1251.604999997653,0,OBJECT,9,AO
2069368,130,688.8150000013411,0,OBJECT,30,AO
2069368,131,657.3599999974249,0,OBJECT,48,AO
2069368,132,1233.7849999967148,0,OBJECT,3,AO
2069368,133,1936.0349999988102,0,ANIMAL,11,LA
2069368,134,596.6199999966193,0,OBJECT,12,AO
2069368,135,1469.149999997171,0,LOCATION,10,OL
2069368,136,561.7300000012619,0,ANIMAL,50,LA
2069368,137,698.6550000001444,0,LOCATION,25,OL
2069368,138,781.8150000020978,0,LOCATION,49,OL
2069368,139,811.0050000032061,0,OBJECT,21,AO
2069368,140,442.24499999836553,0,LOCATION,16,OL
2069368,141,632.6300000000629,0,ANIMAL,38,LA
2069368,142,506.3549999977113,1,LOCATION,34,OL
2069368,143,434.1749999948661,0,OBJECT,18,AO
2069368,144,450.1499999969383,1,OBJECT,27,AO
2069368,145,383.41500000387896,0,LOCATION,40,OL
2069368,146,312.4500000049011,0,LOCATION,43,OL
2069368,147,238.10499999672174,0,ANIMAL,17,LA
2069368,148,315.3699999966193,0,ANIMAL,44,LA
2069368,149,309.7200000047451,0,LOCATION,22,OL
2069368,150,290.499999995518,0,OBJECT,6,AO
2069368,151,313.4349999963888,1,LOCATION,13,OL
2069368,152,305.43000000034226,1,LOCATION,4,OL
2069368,153,282.76500000356464,1,LOCATION,46,OL
2069368,154,384.61500000266824,1,OBJECT,54,AO
2069368,155,721.9150000018999,0,ANIMAL,29,LA
2069368,156,245.1599999985774,0,OBJECT,45,AO
2069368,157,256.8500000052154,1,OBJECT,36,AO
2069368,158,294.0200000011828,0,OBJECT,39,AO
2069368,159,185.14500000310363,1,ANIMAL,53,LA
2069368,160,233.6600000053295,1,ANIMAL,35,LA
2069368,161,282.06499999942025,0,OBJECT,15,AO
2069368,162,249.53999999706866,0,LOCATION,37,OL
2069368,163,268.50500000000466,0,LOCATION,7,OL
2069368,164,257.14999999763677,0,OBJECT,51,AO
2069368,165,585.8850000004168,1,LOCATION,49,AL
2069368,166,572.3649999999907,0,LOCATION,37,AL
2069368,167,550.5800000028103,0,LOCATION,40,AL
2069368,168,367.80500000168104,1,OBJECT,30,LO
2069368,169,628.2700000010664,1,LOCATION,25,AL
2069368,170,342.5950000018929,0,ANIMAL,32,OA
2069368,171,300.6549999990966,0,ANIMAL,35,OA
2069368,172,222.60499999538297,0,ANIMAL,26,OA
2069368,173,214.23499999946216,0,OBJECT,39,LO
2069368,174,237.69000000174856,0,LOCATION,43,AL
2069368,175,294.42500000004657,1,ANIMAL,20,OA
2069368,176,836.3900000040303,1,ANIMAL,47,OA
2069368,177,3971.349999999802,0,OBJECT,51,LO
2069368,178,618.8750000001164,0,ANIMAL,29,OA
2069368,179,861.6800000017975,0,ANIMAL,23,OA
2069368,180,1524.9350000012782,1,OBJECT,3,LO
2069368,181,2588.6399999944842,1,LOCATION,34,AL
2069368,182,956.8149999977322,0,ANIMAL,8,OA
2069368,183,1548.3900000035646,0,ANIMAL,50,OA
2069368,184,744.4699999978184,0,OBJECT,21,LO
2069368,185,1415.2499999981956,1,OBJECT,36,LO
2069368,186,1799.1150000016205,1,OBJECT,18,LO
2069368,187,1604.0149999971618,1,ANIMAL,38,OA
2069368,188,2017.9799999968964,1,LOCATION,19,AL
2069368,189,1764.999999999418,1,LOCATION,16,AL
2069368,190,1495.0349999999162,1,LOCATION,1,AL
2069368,191,1647.46500000183,1,LOCATION,46,AL
2069368,192,874.0600000019185,1,OBJECT,9,LO
2069368,193,839.9399999980233,0,ANIMAL,11,OA
2069368,194,1684.1350000031525,1,ANIMAL,44,OA
2069368,195,1138.939999997092,0,LOCATION,22,AL
2069368,196,3529.820000003383,0,ANIMAL,41,OA
2069368,197,1096.494999997958,1,OBJECT,48,LO
2069368,198,1816.8950000035693,0,ANIMAL,5,OA
2069368,199,1368.7150000041584,0,LOCATION,31,AL
2069368,200,831.3699999998789,0,LOCATION,7,AL
2069368,201,727.0700000008219,0,LOCATION,28,AL
2069368,202,1031.2200000043958,0,LOCATION,13,AL
2069368,203,656.4650000000256,0,ANIMAL,17,OA
2069368,204,438.1149999971967,0,OBJECT,24,LO
2069368,205,600.3049999999348,0,ANIMAL,14,OA
2069368,206,794.7249999997439,0,OBJECT,45,LO
2069368,207,1098.6450000054901,0,OBJECT,6,LO
2069368,208,2856.805000003078,1,OBJECT,33,LO
2069368,209,1474.739999997837,0,LOCATION,10,AL
2069368,210,882.9100000002654,0,LOCATION,4,AL
2069368,211,652.6349999985541,0,OBJECT,27,LO
2069368,212,289.6150000015041,1,OBJECT,12,LO
2069368,213,389.1250000015134,0,OBJECT,54,LO
2069368,214,668.9699999988079,0,OBJECT,15,LO
2069368,215,544.3599999998696,0,LOCATION,52,AL
2069368,216,1210.4099999996834,1,ANIMAL,2,OA
2069368,217,2602.29000000254,1,OBJECT,42,LO
2069368,218,1008.8299999988521,0,ANIMAL,53,OA
2069368,219,518.9050000044517,0,LOCATION,17,AL
2069368,220,631.4050000000861,1,OBJECT,25,LO
2069368,221,639.3699999971432,0,LOCATION,41,AL
2069368,222,524.0850000045612,0,ANIMAL,51,OA
2069368,223,827.6699999987613,0,ANIMAL,24,OA
2069368,224,505.5050000009942,0,ANIMAL,54,OA
2069368,225,742.2050000022864,0,LOCATION,8,AL
2069368,226,698.9249999969616,0,OBJECT,52,LO
2069368,227,489.8299999986193,0,LOCATION,5,AL
2069368,228,522.8799999968032,0,ANIMAL,21,OA
2069368,229,284.5050000032643,1,LOCATION,20,AL
2069368,230,694.1949999963981,0,OBJECT,43,LO
2069368,231,698.8649999984773,0,LOCATION,11,AL
2069368,232,1372.400000000198,0,LOCATION,32,AL
2069368,233,280.74000000208616,0,OBJECT,34,LO
2069368,234,419.4100000022445,1,ANIMAL,42,OA
2069368,235,2509.1500000053784,0,LOCATION,35,AL
2069368,236,432.505000004312,0,OBJECT,1,LO
2069368,237,292.1550000028219,0,LOCATION,47,AL
2069368,238,454.20999999623746,0,ANIMAL,45,OA
2069368,239,363.0300000004936,1,ANIMAL,6,OA
2069368,240,366.67499999748543,0,OBJECT,40,LO
2069368,241,435.88500000629574,1,LOCATION,23,AL
2069368,242,271.9700000016019,0,ANIMAL,18,OA
2069368,243,497.5449999982957,0,LOCATION,50,AL
2069368,244,428.025000001071,0,LOCATION,38,AL
2069368,245,737.8299999982119,0,OBJECT,16,LO
2069368,246,802.8199999971548,0,ANIMAL,9,OA
2069368,247,364.94500000111293,0,ANIMAL,15,OA
2069368,248,859.250000001397,0,ANIMAL,3,OA
2069368,249,1323.1699999960838,0,OBJECT,10,LO
2069368,250,722.1499999942025,0,OBJECT,22,LO
2069368,251,693.7649999962887,0,ANIMAL,39,OA
2069368,252,552.6800000006333,1,ANIMAL,33,OA
2069368,253,529.5049999987241,0,OBJECT,37,LO
2069368,254,946.5849999978673,1,LOCATION,26,AL
2069368,255,508.5449999968987,1,ANIMAL,30,OA
2069368,256,366.5149999941932,1,ANIMAL,12,OA
2069368,257,542.6100000040606,1,OBJECT,13,LO
2069368,258,351.4350000041304,1,LOCATION,44,AL
2069368,259,339.86500000185333,0,OBJECT,4,LO
2069368,260,832.7250000000931,1,LOCATION,29,AL
2069368,261,628.7200000005541,0,OBJECT,19,LO
2069368,262,508.15500000305474,0,OBJECT,49,LO
2069368,263,1269.080000005546,0,OBJECT,46,LO
2069368,264,1048.674999998184,0,ANIMAL,27,OA
2069368,265,455.3550000055693,0,LOCATION,2,AL
2069368,266,1243.864999996731,0,LOCATION,14,AL
2069368,267,1503.9949999991804,0,OBJECT,31,LO
2069368,268,734.8750000019791,0,OBJECT,7,LO
2069368,269,638.5749999971595,0,ANIMAL,36,OA
2069368,270,497.19500000355765,0,ANIMAL,48,OA
2069368,271,852.225000002305,0,LOCATION,53,AL
2069368,272,854.8200000005309,0,OBJECT,28,LO
2069368,273,589.9800000042887,0,LOCATION,12,AL
2069368,274,277.91499999864027,0,LOCATION,18,AL
2069368,275,368.77000000094995,1,ANIMAL,31,OA
2069368,276,252.91500000457745,0,OBJECT,35,LO
2069368,277,145.90499999769963,1,OBJECT,14,LO
2069368,278,177.23999999719672,0,OBJECT,50,LO
2069368,279,183.27500000305008,0,LOCATION,36,AL
2069368,280,69.2200000048615,0,ANIMAL,25,OA
2069368,281,123.91000000212807,0,LOCATION,24,AL
2069368,282,184.6399999994319,1,ANIMAL,46,OA
2069368,283,134.24999999557622,0,OBJECT,23,LO
2069368,284,34.23500000650529,0,OBJECT,20,LO
2069368,285,93.88500000198837,0,ANIMAL,43,OA
2069368,286,52.50000000523869,0,ANIMAL,28,OA
2069368,287,7.52500000083819,0,OBJECT,11,LO
2069368,288,95.26500000362284,0,OBJECT,32,LO
2069368,289,8.810000006691553,0,ANIMAL,34,OA
2069368,290,6.835000000079162,0,LOCATION,33,AL
2069368,291,7.1699999971315265,1,ANIMAL,7,OA
2069368,292,424.49499999918044,0,ANIMAL,37,OA
2069368,293,633.6000000010245,0,LOCATION,15,AL
2069368,294,204.50999999593478,1,ANIMAL,10,OA
2069368,295,308.60499999835156,0,LOCATION,39,AL
2069368,296,248.12499999825377,0,LOCATION,27,AL
2069368,297,283.2449999987148,0,LOCATION,42,AL
2069368,298,277.9850000006845,1,LOCATION,21,AL
2069368,299,272.9700000054436,1,LOCATION,3,AL
2069368,300,288.32499999401625,0,LOCATION,45,AL
2069368,301,276.8399999985704,0,LOCATION,48,AL
2069368,302,282.3550000030082,0,OBJECT,41,LO
2069368,303,342.0799999948358,1,OBJECT,47,LO
2069368,304,290.73000000067987,0,OBJECT,8,LO
2069368,305,263.3200000055367,0,OBJECT,53,LO
2069368,306,282.3649999991758,1,LOCATION,9,AL
2069368,307,231.36499999952503,0,LOCATION,6,AL
2069368,308,309.2499999984866,1,ANIMAL,19,OA
2069368,309,255.41999999410473,1,ANIMAL,1,OA
2069368,310,249.45999999914784,0,ANIMAL,40,OA
2069368,311,253.3700000056997,0,OBJECT,38,LO
2069368,312,210.740000002319,0,OBJECT,17,LO
2069368,313,188.80000000353903,0,OBJECT,44,LO
2069368,314,266.92999999795575,1,LOCATION,54,AL
2069368,315,273.31000000424683,0,ANIMAL,52,OA
2069368,316,353.27500000130385,0,OBJECT,2,LO
2069368,317,282.6550000025891,1,LOCATION,51,AL
2069368,318,347.9850000003353,0,OBJECT,5,LO
2069368,319,91.7600000029197,0,ANIMAL,49,OA
2069368,320,199.84000000113156,0,ANIMAL,4,OA
2069368,321,149.51499999733642,1,OBJECT,26,LO
2069368,322,516.6150000004563,0,OBJECT,29,LO
2069368,323,352.2999999986496,0,ANIMAL,16,OA
2069368,324,316.9599999964703,0,ANIMAL,13,OA
2069368,325,249.52499999920838,1,LOCATION,30,AL
2069368,326,597.2299999993993,1,ANIMAL,22,OA
2069370,3,3903.1899999827147,1,ANIMAL,27,LA
2069370,4,5245.6350000575185,0,OBJECT,34,AO
2069370,5,3912.4699998646975,0,OBJECT,10,AO
2069370,6,3992.225000169128,0,ANIMAL,45,LA
2069370,7,6006.108999999997,miss,LOCATION,8,OL
2069370,8,189.47000009939075,1,ANIMAL,42,LA
2069370,9,3604.255000129342,0,ANIMAL,30,LA
2069370,10,2514.304999727756,1,LOCATION,50,OL
2069370,11,2205.574999563396,1,LOCATION,23,OL
2069370,12,2231.195000000298,1,LOCATION,38,OL
2069370,13,3485.2799996733665,0,ANIMAL,6,LA
2069370,14,2966.4999996311963,0,ANIMAL,33,LA
2069370,15,3311.8099998682737,1,LOCATION,35,OL
2069370,16,3314.859999809414,1,OBJECT,22,AO
2069370,17,3224.8800001107156,1,LOCATION,20,OL
2069370,18,3575.2349998801947,1,OBJECT,16,AO
2069370,19,4118.524999823421,1,LOCATION,26,OL
2069370,20,2446.9350003637373,1,LOCATION,53,OL
2069370,21,3137.0549998246133,0,OBJECT,13,AO
2069370,22,3113.700000103563,0,ANIMAL,48,LA
2069370,23,2265.4150002636015,1,OBJECT,43,AO
2069370,24,2929.39000017941,1,OBJECT,40,AO
2069370,25,2046.5549998916686,1,OBJECT,28,AO
2069370,26,6005.921000000002,miss,LOCATION,29,OL
2069370,27,3800.38999998942,0,ANIMAL,3,LA
2069370,28,4210.549999959767,0,OBJECT,52,AO
2069370,29,3808.71000001207,1,OBJECT,31,AO
2069370,30,3068.489999976009,0,ANIMAL,24,LA
2069370,31,3030.5150002241135,1,OBJECT,25,AO
2069370,32,4567.309999838471,0,ANIMAL,21,LA
2069370,33,3535.7150002382696,1,LOCATION,2,OL
2069370,34,2272.685000207275,0,LOCATION,17,OL
2069370,35,4210.255000274628,0,LOCATION,44,OL
2069370,36,2686.4100000821054,1,OBJECT,4,AO
2069370,37,1536.6799999028444,1,ANIMAL,54,LA
2069370,38,4257.530000060797,1,OBJECT,49,AO
2069370,39,3763.224999886006,1,OBJECT,1,AO
2069370,40,3407.554999925196,0,ANIMAL,12,LA
2069370,41,3438.30499984324,1,ANIMAL,51,LA
2069370,42,2867.6950000226498,1,OBJECT,37,AO
2069370,43,3636.9750001467764,0,LOCATION,5,OL
2069370,44,3921.074999962002,1,ANIMAL,18,LA
2069370,45,3636.574999894947,1,ANIMAL,9,LA
2069370,46,3716.2099997512996,1,LOCATION,47,OL
2069370,47,3037.2350001707673,0,ANIMAL,15,LA
2069370,48,3655.900000128895,1,ANIMAL,39,LA
2069370,49,3374.299999792129,1,OBJECT,19,AO
2069370,50,3335.720000322908,0,LOCATION,11,OL
2069370,51,1892.8399998694658,1,ANIMAL,36,LA
2069370,52,4358.299999963492,0,LOCATION,41,OL
2069370,53,3257.2749997489154,0,OBJECT,7,AO
2069370,54,2694.0100002102554,1,OBJECT,46,AO
2069370,55,4534.46999983862,0,LOCATION,32,OL
2069370,56,2828.20999994874,1,LOCATION,14,OL
2069370,57,2975.904999766499,1,ANIMAL,4,LA
2069370,58,2952.7400000952184,1,OBJECT,2,AO
2069370,59,3367.644999641925,0,LOCATION,3,OL
2069370,60,2181.5249999053776,0,ANIMAL,16,LA
2069370,61,3005.650000181049,0,LOCATION,30,OL
2069370,62,2980.3949999623,1,OBJECT,26,AO
2069370,63,3662.3900001868606,0,LOCATION,18,OL
2069370,64,1557.354999706149,1,OBJECT,47,AO
2069370,65,3829.454999882728,0,ANIMAL,7,LA
2069370,66,3057.295000180602,0,OBJECT,8,AO
2069370,67,2001.1250004172325,1,ANIMAL,10,LA
2069370,68,5144.83999973163,0,OBJECT,41,AO
2069370,69,2664.8450000211596,1,LOCATION,42,OL
2069370,70,3387.70499965176,0,LOCATION,6,OL
2069370,71,3311.5800004452467,0,OBJECT,20,AO
2069370,72,1598.1900002807379,1,OBJECT,38,AO
2069370,73,4497.329999692738,0,LOCATION,27,OL
2069370,74,3749.8499997891486,0,OBJECT,23,AO
2069370,75,2231.9249999709427,0,OBJECT,35,AO
2069370,76,1754.8000002279878,1,OBJECT,53,AO
2069370,77,2137.4849998392165,1,LOCATION,54,OL
2069370,78,3782.230000011623,1,OBJECT,32,AO
2069370,79,3601.62500012666,0,LOCATION,12,OL
2069370,80,2793.775000143796,0,OBJECT,11,AO
2069370,81,2503.084999974817,1,LOCATION,39,OL
2069370,82,2013.6400000192225,1,LOCATION,21,OL
2069370,83,2264.1449999064207,1,ANIMAL,52,LA
2069370,84,3074.7150001116097,0,ANIMAL,25,LA
2069370,85,3988.7449997477233,0,ANIMAL,13,LA
2069370,86,3269.3299995735288,1,OBJECT,29,AO
2069370,87,1997.949999757111,1,ANIMAL,34,LA
2069370,88,3374.299999792129,0,ANIMAL,28,LA
2069370,89,3055.8949997648597,1,OBJECT,14,AO
2069370,90,3203.1950000673532,1,ANIMAL,49,LA
2069370,91,4400.000000372529,1,LOCATION,45,OL
2069370,92,1982.9350002110004,1,ANIMAL,37,LA
2069370,93,2475.6150003522635,1,OBJECT,44,AO
2069370,94,2695.6100002862513,1,OBJECT,50,AO
2069370,95,4117.465000133961,0,LOCATION,48,OL
2069370,96,3715.2499998919666,0,OBJECT,17,AO
2069370,97,2588.959999848157,0,OBJECT,5,AO
2069370,98,2905.2899996750057,0,LOCATION,51,OL
2069370,99,3491.8200001120567,0,ANIMAL,43,LA
2069370,100,3227.225000038743,0,ANIMAL,46,LA
2069370,101,3160.1599999703467,0,LOCATION,36,OL
2069370,102,3063.4600003249943,1,ANIMAL,1,LA
2069370,103,3132.160000037402,1,ANIMAL,31,LA
2069370,104,3709.7400003112853,0,ANIMAL,19,LA
2069370,105,3848.954999819398,1,LOCATION,24,OL
2069370,106,3378.2600001432,0,LOCATION,15,OL
2069370,107,3319.9900002218783,0,ANIMAL,22,LA
2069370,108,3003.634999971837,1,LOCATION,33,OL
2069370,109,3570.835000369698,0,LOCATION,9,OL
2069370,110,4482.179999817163,1,ANIMAL,40,LA
2069370,111,3067.859999835491,1,ANIMAL,11,LA
2069370,112,2056.394999846816,1,ANIMAL,23,LA
2069370,113,3565.1949997991323,0,LOCATION,28,OL
2069370,114,4102.299999911338,0,OBJECT,33,AO
2069370,115,3109.2500002123415,0,OBJECT,18,AO
2069370,116,2965.559999924153,1,OBJECT,3,AO
2069370,117,3217.000000178814,1,OBJECT,39,AO
2069370,118,3207.010000012815,0,OBJECT,24,AO
2069370,119,2836.689999792725,1,ANIMAL,38,LA
2069370,120,2534.110000357032,1,OBJECT,30,AO
2069370,121,2358.904999680817,1,LOCATION,40,OL
2069370,122,2242.6200001500547,1,LOCATION,22,OL
2069370,123,2797.40499984473,0,ANIMAL,26,LA
2069370,124,3145.209999755025,0,LOCATION,46,OL
2069370,125,3324.1900000721216,0,ANIMAL,44,LA
2069370,126,2526.5199998393655,1,LOCATION,1,OL
2069370,127,3038.93500007689,0,OBJECT,45,AO
2069370,128,3724.835000000894,0,ANIMAL,20,LA
2069370,129,2037.0700000785291,1,LOCATION,37,OL
2069370,130,4360.634999815375,1,LOCATION,4,OL
2069370,131,2005.8299996890128,1,ANIMAL,50,LA
2069370,132,2143.995000049472,1,ANIMAL,53,LA
2069370,133,3613.1400000303984,0,OBJECT,15,AO
2069370,134,3632.3549998924136,0,LOCATION,16,OL
2069370,135,3152.1250000223517,1,ANIMAL,32,LA
2069370,136,2516.13499969244,0,OBJECT,9,AO
2069370,137,3595.1450001448393,1,LOCATION,25,OL
2069370,138,3397.1899999305606,0,OBJECT,12,AO
2069370,139,2853.8499996066093,1,OBJECT,42,AO
2069370,140,3664.015000220388,1,LOCATION,19,OL
2069370,141,2793.350000400096,0,ANIMAL,47,LA
2069370,142,2761.81499985978,0,ANIMAL,5,LA
2069370,143,2127.495000138879,1,OBJECT,48,AO
2069370,144,3892.0599999837577,1,LOCATION,7,OL
2069370,145,3574.3700000457466,1,OBJECT,54,AO
2069370,146,1513.1450002081692,0,OBJECT,21,AO
2069370,147,3749.7300002723932,0,ANIMAL,29,LA
2069370,148,2591.0399998538196,0,LOCATION,52,OL
2069370,149,3245.395000092685,0,OBJECT,36,AO
2069370,150,2754.2099999263883,1,ANIMAL,41,LA
2069370,151,3085.4150000959635,0,ANIMAL,17,LA
2069370,152,3467.3800002783537,0,OBJECT,51,AO
2069370,153,2608.0800001509488,1,LOCATION,10,OL
2069370,154,2507.4050002731383,0,OBJECT,6,AO
2069370,155,3823.429999873042,0,OBJECT,27,AO
2069370,156,3339.784999843687,1,LOCATION,31,OL
2069370,157,2017.3999997787178,1,ANIMAL,35,LA
2069370,158,4113.170000258833,0,ANIMAL,14,LA
2069370,159,3470.8400000818074,0,ANIMAL,2,LA
2069370,160,3740.104999858886,1,LOCATION,13,OL
2069370,161,5034.689999651164,0,LOCATION,43,OL
2069370,162,3246.0000002756715,1,LOCATION,34,OL
2069370,163,3759.9300001747906,0,LOCATION,49,OL
2069370,164,3159.260000102222,0,ANIMAL,8,LA
2069370,165,1561.6549998521805,0,LOCATION,4,AL
2069370,166,2567.1149999834597,1,ANIMAL,23,OA
2069370,167,971.5950000099838,1,ANIMAL,38,OA
2069370,168,2011.6099999286234,1,OBJECT,54,LO
2069370,169,2086.8299999274313,1,LOCATION,31,AL
2069370,170,4683.62500006333,0,OBJECT,15,LO
2069370,171,2826.0400001890957,1,OBJECT,51,LO
2069370,172,2876.2900000438094,0,LOCATION,22,AL
2069370,173,3049.804999958724,1,LOCATION,43,AL
2069370,174,3982.7350000850856,0,OBJECT,18,LO
2069370,175,3366.1199999041855,1,OBJECT,48,LO
2069370,176,3144.3650000728667,0,LOCATION,46,AL
2069370,177,3318.764999974519,0,ANIMAL,11,OA
2069370,178,2534.5649998635054,0,LOCATION,13,AL
2069370,179,2080.2300004288554,1,LOCATION,52,AL
2069370,180,3319.220000412315,0,ANIMAL,17,OA
2069370,181,2229.065000079572,1,LOCATION,34,AL
2069370,182,3437.6449999399483,1,LOCATION,7,AL
2069370,183,3286.6200003772974,1,ANIMAL,32,OA
2069370,184,1835.4849996976554,1,ANIMAL,47,OA
2069370,185,3500.895000062883,1,ANIMAL,29,OA
2069370,186,2988.679999951273,0,OBJECT,30,LO
2069370,187,3704.979999922216,1,LOCATION,25,AL
2069370,188,2788.68000023067,1,OBJECT,3,LO
2069370,189,2783.809999935329,1,ANIMAL,14,OA
2069370,190,3476.5449999831617,1,ANIMAL,20,OA
2069370,191,3494.995000306517,0,LOCATION,16,AL
2069370,192,3697.8449998423457,0,ANIMAL,41,OA
2069370,193,3144.705000333488,1,OBJECT,42,LO
2069370,194,2366.094999946654,0,ANIMAL,8,OA
2069370,195,4618.114999961108,0,OBJECT,27,LO
2069370,196,3175.525000318885,0,LOCATION,1,AL
2069370,197,2991.3949999026954,0,LOCATION,19,AL
2069370,198,2039.2300002276897,1,ANIMAL,26,OA
2069370,199,2272.055000066757,1,LOCATION,37,AL
2069370,200,3468.9699998125434,0,OBJECT,9,LO
2069370,201,1838.3550001308322,1,OBJECT,6,LO
2069370,202,2461.864999961108,1,LOCATION,49,AL
2069370,203,2800.6500001065433,0,LOCATION,10,AL
2069370,204,3105.1749996840954,1,ANIMAL,2,OA
2069370,205,2539.609999861568,1,LOCATION,40,AL
2069370,206,2527.449999935925,1,OBJECT,45,LO
2069370,207,2681.5300001762807,1,ANIMAL,44,OA
2069370,208,3853.459999896586,1,ANIMAL,5,OA
2069370,209,2856.7050001583993,1,OBJECT,24,LO
2069370,210,3471.4250001125038,1,ANIMAL,35,OA
2069370,211,2183.1999998539686,0,LOCATION,28,AL
2069370,212,3576.7749999649823,0,OBJECT,36,LO
2069370,213,2981.740000192076,1,OBJECT,33,LO
2069370,214,2101.164999883622,0,OBJECT,12,LO
2069370,215,1582.7600001357496,1,ANIMAL,50,OA
2069370,216,1916.0900004208088,1,OBJECT,39,LO
2069370,217,2097.8349996730685,1,ANIMAL,53,OA
2069370,218,1672.410000115633,1,OBJECT,21,LO
2069370,219,3522.0300001092255,0,ANIMAL,24,OA
2069370,220,2826.9949997775257,1,ANIMAL,3,OA
2069370,221,2842.579999938607,1,LOCATION,29,AL
2069370,222,2987.9600000567734,0,OBJECT,25,LO
2069370,223,3771.710000000894,1,ANIMAL,45,OA
2069370,224,2754.5499997213483,1,ANIMAL,21,OA
2069370,225,1876.319999806583,1,ANIMAL,54,OA
2069370,226,2556.2599999830127,1,ANIMAL,42,OA
2069370,227,4536.254999693483,1,OBJECT,52,LO
2069370,228,3132.77000002563,0,LOCATION,11,AL
2069370,229,1281.3799995929003,1,LOCATION,23,AL
2069370,230,1204.2450001463294,1,ANIMAL,39,OA
2069370,231,2025.3800000064075,1,LOCATION,5,AL
2069370,232,1451.979999896139,1,ANIMAL,48,OA
2069370,233,2621.3400000706315,1,ANIMAL,30,OA
2069370,234,3926.974999718368,0,ANIMAL,9,OA
2069370,235,3333.6249999701977,0,OBJECT,7,LO
2069370,236,1616.2100001238286,1,LOCATION,50,AL
2069370,237,2033.3549999631941,1,LOCATION,53,AL
2069370,238,2880.3049996495247,0,OBJECT,28,LO
2069370,239,2933.8600002229214,1,LOCATION,2,AL
2069370,240,3237.8800003789365,0,ANIMAL,36,OA
2069370,241,4468.909999821335,0,OBJECT,31,LO
2069370,242,2122.650000266731,1,OBJECT,43,LO
2069370,243,2833.7099999189377,1,LOCATION,20,AL
2069370,244,2957.4049999937415,0,OBJECT,10,LO
2069370,245,3702.9900001361966,1,LOCATION,17,AL
2069370,246,2946.484999731183,0,OBJECT,16,LO
2069370,247,1373.7350003793836,1,LOCATION,38,AL
2069370,248,1522.0200000330806,1,OBJECT,22,LO
2069370,249,2212.770000100136,1,LOCATION,35,AL
2069370,250,5381.240000016987,1,LOCATION,44,AL
2069370,251,4194.469999987632,0,OBJECT,49,LO
2069370,252,2540.4849997721612,1,LOCATION,32,AL
2069370,253,2422.955000307411,0,ANIMAL,12,OA
2069370,254,4027.9450002126396,1,LOCATION,14,AL
2069370,255,2914.199999999255,0,ANIMAL,6,OA
2069370,256,3448.9400000311434,1,ANIMAL,15,OA
2069370,257,3050.93999998644,1,LOCATION,8,AL
2069370,258,3252.485000062734,1,OBJECT,19,LO
2069370,259,2410.930000245571,0,OBJECT,4,LO
2069370,260,2877.174999564886,1,ANIMAL,27,OA
2069370,261,3740.5749997124076,0,ANIMAL,33,OA
2069370,262,2767.3999997787178,1,LOCATION,41,AL
2069370,263,3712.6550003886223,1,OBJECT,1,LO
2069370,264,2763.600000180304,1,OBJECT,40,LO
2069370,265,2163.040000014007,1,ANIMAL,18,OA
2069370,266,3344.204999972135,1,OBJECT,46,LO
2069370,267,3771.8550004065037,0,OBJECT,34,LO
2069370,268,3879.499999806285,0,ANIMAL,51,OA
2069370,269,2591.2399999797344,1,OBJECT,37,LO
2069370,270,3770.665000192821,0,LOCATION,47,AL
2069370,271,3298.4500001184642,0,LOCATION,26,AL
2069370,272,2803.059999831021,1,OBJECT,13,LO
2069370,273,2021.3799998164177,1,OBJECT,50,LO
2069370,274,1787.2649999335408,0,LOCATION,6,AL
2069370,275,3129.3600001372397,0,ANIMAL,31,OA
2069370,276,3248.7099999561906,0,LOCATION,18,AL
2069370,277,2017.750000115484,1,LOCATION,3,AL
2069370,278,2855.47999991104,0,ANIMAL,49,OA
2069370,279,1362.2300000861287,1,OBJECT,23,LO
2069370,280,2071.780000347644,1,OBJECT,20,LO
2069370,281,4357.144999783486,0,LOCATION,24,AL
2069370,282,1668.0399999022484,1,ANIMAL,40,OA
2069370,283,1855.8950000442564,1,ANIMAL,1,OA
2069370,284,3525.1699998043478,1,ANIMAL,28,OA
2069370,285,2563.750000204891,0,OBJECT,26,LO
2069370,286,1388.7149998918176,1,LOCATION,36,AL
2069370,287,3470.6700001843274,1,OBJECT,5,LO
2069370,288,1836.430000141263,1,ANIMAL,46,OA
2069370,289,3184.8100000061095,1,OBJECT,32,LO
2069370,290,1933.7399997748435,1,ANIMAL,43,OA
2069370,291,3153.605000115931,0,OBJECT,44,LO
2069370,292,3295.4200003296137,0,ANIMAL,52,OA
2069370,293,2704.684999771416,0,OBJECT,17,LO
2069370,294,2645.5149999819696,0,LOCATION,9,AL
2069370,295,2196.5499999932945,0,LOCATION,21,AL
2069370,296,3090.4500000178814,0,OBJECT,47,LO
2069370,297,3027.71499985829,0,LOCATION,45,AL
2069370,298,2943.1850002147257,0,ANIMAL,22,OA
2069370,299,2264.82000015676,0,LOCATION,12,AL
2069370,300,2833.6700000800192,1,OBJECT,8,LO
2069370,301,4528.290000278503,1,ANIMAL,16,OA
2069370,302,3876.7349999397993,0,OBJECT,14,LO
2069370,303,3330.6550001725554,0,LOCATION,30,AL
2069370,304,3388.530000112951,0,OBJECT,2,LO
2069370,305,3875.4650000482798,1,OBJECT,29,LO
2069370,306,3611.585000064224,1,LOCATION,33,AL
2069370,307,2930.6549998000264,0,LOCATION,15,AL
2069370,308,2415.2049999684095,1,OBJECT,38,LO
2069370,309,2647.514999844134,1,LOCATION,39,AL
2069370,310,3755.0499998033047,0,LOCATION,51,AL
2069370,311,1741.815000306815,1,ANIMAL,25,OA
2069370,312,3282.955000177026,1,OBJECT,41,LO
2069370,313,2952.9800000600517,0,LOCATION,48,AL
2069370,314,1421.2550004012883,1,LOCATION,42,AL
2069370,315,2125.2450002357364,1,ANIMAL,37,OA
2069370,316,1469.719999935478,1,LOCATION,54,AL
2069370,317,2048.8550001755357,1,ANIMAL,7,OA
2069370,318,3043.2950002141297,0,ANIMAL,13,OA
2069370,319,3025.2300002612174,0,ANIMAL,19,OA
2069370,320,3390.0199998170137,0,OBJECT,35,LO
2069370,321,2245.260000228882,0,OBJECT,11,LO
2069370,322,3792.6650000736117,0,ANIMAL,10,OA
2069370,323,3591.7650000192225,0,LOCATION,27,AL
2069370,324,1664.9299999698997,0,ANIMAL,34,OA
2069370,325,1923.5749999061227,0,ANIMAL,4,OA
2069370,326,4048.799999989569,0,OBJECT,53,LO
2069522,3,6001.200000000012,miss,LOCATION,29,OL
2069522,4,4251,1,OBJECT,40,AO
2069522,5,3840,0,ANIMAL,18,LA
2069522,6,3869,0,OBJECT,1,AO
2069522,7,4223,0,LOCATION,5,OL
2069522,8,3907,1,LOCATION,35,OL
2069522,9,3156,0,ANIMAL,33,LA
2069522,10,4233,1,OBJECT,10,AO
2069522,11,3893,0,OBJECT,7,AO
2069522,12,4244,0,ANIMAL,3,LA
2069522,13,3630,0,ANIMAL,30,LA
2069522,14,4244,0,ANIMAL,12,LA
2069522,15,5185,0,ANIMAL,51,LA
2069522,16,4452,1,OBJECT,16,AO
2069522,17,4093,1,LOCATION,44,OL
2069522,18,3445,0,LOCATION,32,OL
2069522,19,3668,1,LOCATION,11,OL
2069522,20,3351,1,OBJECT,46,AO
2069522,21,3867,1,OBJECT,31,AO
2069522,22,4264,1,LOCATION,53,OL
2069522,23,3743,0,LOCATION,41,OL
2069522,24,3329,1,OBJECT,34,AO
2069522,25,4179,0,LOCATION,2,OL
