participant_private_id,trial_number,display,reaction_time,response,cue,category_cue,target,eventno,pairtype,untested_element,accuracy,true_typo,typed_response,accuracy_types
2069366,3,retrieval_trial,3511.92499999888,church,sheep,OBJECT,skipping rope,3,AO,L,error,FALSE,church,we_cat_error
2069366,4,retrieval_trial,9992.545,NA,snake,OBJECT,kite,2,AO,L,error,FALSE,NA,miss
2069366,5,retrieval_trial,9992.546,NA,giraffe,OBJECT,clock,6,AO,L,error,FALSE,NA,miss
2069366,6,retrieval_trial,7356.495,bus stop,cow,OBJECT,backpack,4,AO,L,error,FALSE,bus stop,be_cat_error
2069366,7,retrieval_trial,7753.58999999298,umbrella,fish,OBJECT,dice,1,AO,L,error,FALSE,umbrella,wc_event_error
2069366,8,retrieval_trial,9992.53699999998,NA,trophy,LOCATION,university,18,OL,A,error,FALSE,NA,miss
2069366,9,retrieval_trial,9992.57399999999,NA,garden,ANIMAL,goat,11,LA,O,error,FALSE,NA,miss
2069366,10,retrieval_trial,5346.46499999508,dentists,ring,LOCATION,living room,15,OL,A,error,TRUE,dentist,wc_event_error
2069366,11,retrieval_trial,7946.57000000007,sheep,hairdressers,ANIMAL,flamingo,10,LA,O,error,FALSE,sheep,wc_event_error
2069366,12,retrieval_trial,9992.54499999998,NA,statue,LOCATION,cruise ship,16,OL,A,error,FALSE,NA,miss
2069366,13,retrieval_trial,4678.62999999488,bear,treehouse,ANIMAL,kangaroo,7,LA,O,error,FALSE,bear,wc_event_error
2069366,14,retrieval_trial,9992.57899999997,NA,spider,OBJECT,carrot,5,AO,L,error,FALSE,NA,miss
2069366,15,retrieval_trial,9992.51299999998,NA,ball,LOCATION,forest,13,OL,A,error,FALSE,NA,miss
2069366,16,retrieval_trial,9992.538,NA,lighthouse,ANIMAL,bear,12,LA,O,error,FALSE,NA,miss
2069366,17,retrieval_trial,9992.54300000001,owl,waterfall,ANIMAL,zebra,8,LA,O,CHECK,CHECK,owl,CHECK
2069366,18,retrieval_trial,9992.54200000002,NA,chainsaw,LOCATION,gym,17,OL,A,error,FALSE,NA,miss
2069366,19,retrieval_trial,9992.54399999999,NA,bank,ANIMAL,butterfly,9,LA,O,error,FALSE,NA,miss
2069366,20,retrieval_trial,8235.79000000609,',glasses,LOCATION,railway station,14,OL,A,CHECK,CHECK,',CHECK
2069366,21,retrieval_trial,8886.40499999747,lighthouse,bear,LOCATION,lighthouse,12,AL,O,1,FALSE,lighthouse,1
2069366,22,retrieval_trial,6650.64000000712,koala,forest,OBJECT,ball,13,LO,A,error,FALSE,koala,be_cat_error
2069366,23,retrieval_trial,9992.51199999999,l,living room,OBJECT,ring,15,LO,A,CHECK,CHECK,l,CHECK
2069366,24,retrieval_trial,9992.54799999995,ci,zebra,LOCATION,waterfall,8,AL,O,CHECK,CHECK,ci,CHECK
2069366,25,retrieval_trial,8857.02999999921,diner,kangaroo,LOCATION,treehouse,7,AL,O,CHECK,CHECK,diner,CHECK
2069366,26,retrieval_trial,9170.60499999207,field,goat,LOCATION,garden,11,AL,O,CHECK,CHECK,field,CHECK
2069366,27,retrieval_trial,8612.41499999596,tiger,gym,OBJECT,chainsaw,17,LO,A,error,FALSE,tiger,be_cat_error
2069366,28,retrieval_trial,3482.30999999214,statue,cruise ship,OBJECT,statue,16,LO,A,1,FALSE,statue,1
2069366,29,retrieval_trial,6134.05499998771,snake,carrot,ANIMAL,spider,5,OA,L,error,FALSE,snake,wc_event_error
2069366,30,retrieval_trial,8562.59500001033,tiger,backpack,ANIMAL,cow,4,OA,L,error,FALSE,tiger,wc_event_error
2069366,31,retrieval_trial,4234.66499999631,bank,butterfly,LOCATION,bank,9,AL,O,1,FALSE,bank,1
2069366,32,retrieval_trial,9992.51399999997,NA,dice,ANIMAL,fish,1,OA,L,error,FALSE,NA,miss
2069366,33,retrieval_trial,4190.94000000041,glasses,railway station,OBJECT,glasses,14,LO,A,1,FALSE,glasses,1
2069366,34,retrieval_trial,2187.72499999614,snake,kite,ANIMAL,snake,2,OA,L,1,FALSE,snake,1
2069366,35,retrieval_trial,9992.54999999993,k,skipping rope,ANIMAL,sheep,3,OA,L,CHECK,CHECK,k,CHECK
2069366,36,retrieval_trial,9992.58200000005,NA,clock,ANIMAL,giraffe,6,OA,L,error,FALSE,NA,miss
2069366,37,retrieval_trial,9992.51600000006,NA,flamingo,LOCATION,hairdressers,10,AL,O,error,FALSE,NA,miss
2069366,38,retrieval_trial,4842.79999999853,statue,university,OBJECT,trophy,18,LO,A,error,FALSE,statue,wc_event_error
2069394,3,retrieval_trial,9983.948,object,ring,LOCATION,living room,15,OL,A,CHECK,CHECK,object,CHECK
2069394,4,retrieval_trial,9983.66999999998,animal,bank,ANIMAL,butterfly,9,LA,O,CHECK,CHECK,animal,CHECK
2069394,5,retrieval_trial,9983.82399999999,NA,trophy,LOCATION,university,18,OL,A,error,FALSE,NA,miss
2069394,6,retrieval_trial,9983.29399999999,fairg,cow,OBJECT,backpack,4,AO,L,CHECK,CHECK,fairg,CHECK
2069394,7,retrieval_trial,5442.86999999985,airport,fish,OBJECT,dice,1,AO,L,error,TRUE,air,be_cat_error
2069394,8,retrieval_trial,4310.63499999983,come,spider,OBJECT,carrot,5,AO,L,CHECK,CHECK,come,CHECK
2069394,9,retrieval_trial,4848.4749999998,spider,treehouse,ANIMAL,kangaroo,7,LA,O,error,FALSE,spider,wc_event_error
2069394,10,retrieval_trial,3295.07500000001,university,statue,LOCATION,cruise ship,16,OL,A,error,FALSE,university,wc_event_error
2069394,11,retrieval_trial,4526.2950000001,river,glasses,LOCATION,railway station,14,OL,A,error,FALSE,river,wc_event_error
2069394,12,retrieval_trial,3896.19499999983,mountain,chainsaw,LOCATION,gym,17,OL,A,error,FALSE,mountain,wc_event_error
2069394,13,retrieval_trial,4248.93999999994,waterfall,garden,ANIMAL,goat,11,LA,O,error,TRUE,water,be_cat_error
2069394,14,retrieval_trial,3518.72000000003,blade,sheep,OBJECT,skipping rope,3,AO,L,CHECK,CHECK,blade,CHECK
2069394,15,retrieval_trial,4961.245,gaost,hairdressers,ANIMAL,flamingo,10,LA,O,CHECK,CHECK,gaost,CHECK
2069394,16,retrieval_trial,7041.07500000007,cup,snake,OBJECT,kite,2,AO,L,CHECK,CHECK,cup,CHECK
2069394,17,retrieval_trial,7561.80999999965,knife,giraffe,OBJECT,clock,6,AO,L,CHECK,CHECK,knife,CHECK
2069394,18,retrieval_trial,3930.20999999996,mountain,ball,LOCATION,forest,13,OL,A,error,FALSE,mountain,wc_event_error
2069394,19,retrieval_trial,6544.87000000017,son,lighthouse,ANIMAL,bear,12,LA,O,CHECK,CHECK,son,CHECK
2069394,20,retrieval_trial,4336.75499999983,girrafe,waterfall,ANIMAL,zebra,8,LA,O,CHECK,CHECK,girrafe,CHECK
2069394,21,retrieval_trial,9983.75,NA,zebra,LOCATION,waterfall,8,AL,O,error,FALSE,NA,miss
2069394,22,retrieval_trial,9983.60199999996,NA,university,OBJECT,trophy,18,LO,A,error,FALSE,NA,miss
2069394,23,retrieval_trial,6609.82000000053,dolphin,dice,ANIMAL,fish,1,OA,L,error,FALSE,dolphin,wc_event_error
2069394,24,retrieval_trial,4412.30499999982,lamp,gym,OBJECT,chainsaw,17,LO,A,error,FALSE,lamp,wc_event_error
2069394,25,retrieval_trial,9983.73999999999,cat,forest,OBJECT,ball,13,LO,A,error,FALSE,cat,be_cat_error
2069394,26,retrieval_trial,9983.65099999995,campsite,kangaroo,LOCATION,treehouse,7,AL,O,error,TRUE,campsit,wc_event_error
2069394,27,retrieval_trial,3381.50500000024,campsite,goat,LOCATION,garden,11,AL,O,error,FALSE,campsite,wc_event_error
2069394,28,retrieval_trial,4702.80000000005,lizard,kite,ANIMAL,snake,2,OA,L,error,FALSE,lizard,wc_event_error
2069394,29,retrieval_trial,6246.52999999945,ant,skipping rope,ANIMAL,sheep,3,OA,L,error,FALSE,ant,wc_event_error
2069394,30,retrieval_trial,7547.75499999966,patr,bear,LOCATION,lighthouse,12,AL,O,CHECK,CHECK,patr,CHECK
2069394,31,retrieval_trial,6710.68000000005,vase,railway station,OBJECT,glasses,14,LO,A,error,FALSE,vase,wc_event_error
2069394,32,retrieval_trial,3953.36500000034,panda,clock,ANIMAL,giraffe,6,OA,L,error,FALSE,panda,wc_event_error
2069394,33,retrieval_trial,6290.69000000076,handbag,cruise ship,OBJECT,statue,16,LO,A,error,FALSE,handbag,wc_event_error
2069394,34,retrieval_trial,4433.74500000023,city,butterfly,LOCATION,bank,9,AL,O,error,FALSE,city,wc_event_error
2069394,35,retrieval_trial,9983.66000000003,s,backpack,ANIMAL,cow,4,OA,L,CHECK,CHECK,s,CHECK
2069394,36,retrieval_trial,4393.68000000017,goat,carrot,ANIMAL,spider,5,OA,L,error,FALSE,goat,wc_event_error
2069394,37,retrieval_trial,9983.97600000002,dh,flamingo,LOCATION,hairdressers,10,AL,O,CHECK,CHECK,dh,CHECK
2069394,38,retrieval_trial,7213.44000000041,knife,living room,OBJECT,ring,15,LO,A,CHECK,CHECK,knife,CHECK
2075957,3,retrieval_trial,1763.00000000001,no idea,ball,LOCATION,forest,13,OL,A,CHECK,CHECK,no idea,CHECK
2075957,4,retrieval_trial,1851.00000000001,no idea,spider,OBJECT,carrot,5,AO,L,CHECK,CHECK,no idea,CHECK
2075957,5,retrieval_trial,2331,i can't do this,hairdressers,ANIMAL,flamingo,10,LA,O,CHECK,CHECK,i can't do this,CHECK
2075957,6,retrieval_trial,2807,lll,garden,ANIMAL,goat,11,LA,O,CHECK,CHECK,lll,CHECK
2075957,7,retrieval_trial,1325.99999999999,kkk,ring,LOCATION,living room,15,OL,A,CHECK,CHECK,kkk,CHECK
2075957,8,retrieval_trial,1812,no,waterfall,ANIMAL,zebra,8,LA,O,CHECK,CHECK,no,CHECK
2075957,9,retrieval_trial,751.999999999971,whale,lighthouse,ANIMAL,bear,12,LA,O,error,FALSE,whale,wc_event_error
2075957,10,retrieval_trial,9978,university,trophy,LOCATION,university,18,OL,A,1,TRUE,universit,1
2075957,11,retrieval_trial,1464,i can't type quick,sheep,OBJECT,skipping rope,3,AO,L,CHECK,CHECK,i can't type quick,CHECK
2075957,12,retrieval_trial,644,enough,chainsaw,LOCATION,gym,17,OL,A,CHECK,CHECK,enough,CHECK
2075957,13,retrieval_trial,3057,nnn,fish,OBJECT,dice,1,AO,L,CHECK,CHECK,nnn,CHECK
2075957,14,retrieval_trial,637,no,statue,LOCATION,cruise ship,16,OL,A,CHECK,CHECK,no,CHECK
2075957,15,retrieval_trial,1632,no,bank,ANIMAL,butterfly,9,LA,O,CHECK,CHECK,no,CHECK
2075957,16,retrieval_trial,1842.99999999997,?,snake,OBJECT,kite,2,AO,L,CHECK,CHECK,?,CHECK
2075957,17,retrieval_trial,954,?,cow,OBJECT,backpack,4,AO,L,CHECK,CHECK,?,CHECK
2075957,18,retrieval_trial,1237,?,giraffe,OBJECT,clock,6,AO,L,CHECK,CHECK,?,CHECK
2075957,19,retrieval_trial,1609,?,treehouse,ANIMAL,kangaroo,7,LA,O,CHECK,CHECK,?,CHECK
2075957,20,retrieval_trial,1310,i remember,glasses,LOCATION,railway station,14,OL,A,CHECK,CHECK,i remember,CHECK
2075957,21,retrieval_trial,4816.99999999988,ball,forest,OBJECT,ball,13,LO,A,1,FALSE,ball,1
2075957,22,retrieval_trial,2369.00000000012,hairdressers,flamingo,LOCATION,hairdressers,10,AL,O,1,TRUE,hairdresser,1
2075957,23,retrieval_trial,2770,lighthouse,bear,LOCATION,lighthouse,12,AL,O,1,FALSE,lighthouse,1
2075957,24,retrieval_trial,2611,map,railway station,OBJECT,glasses,14,LO,A,error,FALSE,map,wc_event_error
2075957,25,retrieval_trial,4059,no,skipping rope,ANIMAL,sheep,3,OA,L,CHECK,CHECK,no,CHECK
2075957,26,retrieval_trial,3242,statue,cruise ship,OBJECT,statue,16,LO,A,1,FALSE,statue,1
2075957,27,retrieval_trial,3095,no,gym,OBJECT,chainsaw,17,LO,A,CHECK,CHECK,no,CHECK
2075957,28,retrieval_trial,2484.00000000012,no,dice,ANIMAL,fish,1,OA,L,CHECK,CHECK,no,CHECK
2075957,29,retrieval_trial,3516,no,butterfly,LOCATION,bank,9,AL,O,CHECK,CHECK,no,CHECK
2075957,30,retrieval_trial,2950.00000000012,treehouse,kangaroo,LOCATION,treehouse,7,AL,O,1,FALSE,treehouse,1
2075957,31,retrieval_trial,2734,snake,kite,ANIMAL,snake,2,OA,L,1,FALSE,snake,1
2075957,32,retrieval_trial,5488.00000000012,trophy,university,OBJECT,trophy,18,LO,A,1,FALSE,trophy,1
2075957,33,retrieval_trial,2430,no,carrot,ANIMAL,spider,5,OA,L,CHECK,CHECK,no,CHECK
2075957,34,retrieval_trial,2717,no,clock,ANIMAL,giraffe,6,OA,L,CHECK,CHECK,no,CHECK
2075957,35,retrieval_trial,1865,no,goat,LOCATION,garden,11,AL,O,CHECK,CHECK,no,CHECK
2075957,36,retrieval_trial,2907,no,zebra,LOCATION,waterfall,8,AL,O,CHECK,CHECK,no,CHECK
2075957,37,retrieval_trial,2597.99999999988,no,backpack,ANIMAL,cow,4,OA,L,CHECK,CHECK,no,CHECK
2075957,38,retrieval_trial,2838,no,living room,OBJECT,ring,15,LO,A,CHECK,CHECK,no,CHECK
2069386,3,retrieval_trial,9978.17500000002,penguin,gym,ANIMAL,badger,17,LA,O,error,FALSE,penguin,wc_event_error
2069386,4,retrieval_trial,9978.24299999999,owl,railway station,ANIMAL,pig,14,LA,O,CHECK,CHECK,owl,CHECK
2069386,5,retrieval_trial,9977.44099999999,pengion,skipping rope,LOCATION,church,3,OL,A,CHECK,CHECK,pengion,CHECK
2069386,6,retrieval_trial,9977.834,umbrella,flamingo,OBJECT,box,10,AO,L,error,FALSE,umbrella,wc_event_error
2069386,7,retrieval_trial,9977.821,tower,kangaroo,OBJECT,book,7,AO,L,CHECK,CHECK,tower,CHECK
2069386,8,retrieval_trial,9977.85700000002,torch,bear,OBJECT,mug,12,AO,L,error,FALSE,torch,wc_event_error
2069386,9,retrieval_trial,9978.25599999999,skipping rope,butterfly,OBJECT,spoon,9,AO,L,error,FALSE,skipping rope,wc_event_error
2069386,10,retrieval_trial,9977.85500000001,goat,university,ANIMAL,wolf,18,LA,O,error,FALSE,goat,wc_event_error
2069386,11,retrieval_trial,9977.44799999997,cat,living room,ANIMAL,monkey,15,LA,O,error,FALSE,cat,wc_event_error
2069386,12,retrieval_trial,9977.49699999997,ant,forest,ANIMAL,chicken,13,LA,O,error,FALSE,ant,wc_event_error
2069386,13,retrieval_trial,9977.87599999999,church,backpack,LOCATION,post office,4,OL,A,error,FALSE,church,wc_event_error
2069386,14,retrieval_trial,9977.84500000003,airport,carrot,LOCATION,circus,5,OL,A,error,FALSE,airport,wc_event_error
2069386,15,retrieval_trial,9977.761,hat,zebra,OBJECT,ice cream,8,AO,L,error,FALSE,hat,wc_event_error
2069386,16,retrieval_trial,9977.86699999997,keys,goat,OBJECT,camera,11,AO,L,error,FALSE,keys,wc_event_error
2069386,17,retrieval_trial,9978.13099999999,tower,clock,LOCATION,mountain,6,OL,A,CHECK,CHECK,tower,CHECK
2069386,18,retrieval_trial,9977.85700000002,school,kite,LOCATION,classroom,2,OL,A,CHECK,CHECK,school,CHECK
2069386,19,retrieval_trial,9977.717,cow,cruise ship,ANIMAL,hamster,16,LA,O,error,FALSE,cow,wc_event_error
2069386,20,retrieval_trial,9977.89500000002,farm,dice,LOCATION,theatre,1,OL,A,CHECK,CHECK,farm,CHECK
2069386,21,retrieval_trial,2815.2649999829,clock,mountain,OBJECT,clock,6,LO,A,1,FALSE,clock,1
2069386,22,retrieval_trial,2496.37499998789,university,wolf,LOCATION,university,18,AL,O,1,FALSE,university,1
2069386,23,retrieval_trial,4937.0699999854,kite,classroom,OBJECT,kite,2,LO,A,1,FALSE,kite,1
2069386,24,retrieval_trial,2540.05499999039,badger,spoon,ANIMAL,butterfly,9,OA,L,error,FALSE,badger,wc_event_error
2069386,25,retrieval_trial,7461.52499999152,cottage,pig,LOCATION,railway station,14,AL,O,CHECK,CHECK,cottage,CHECK
2069386,26,retrieval_trial,8216.47999997367,cow,mug,ANIMAL,bear,12,OA,L,error,FALSE,cow,wc_event_error
2069386,27,retrieval_trial,5318.96500001312,goat,circus,OBJECT,carrot,5,LO,A,error,FALSE,goat,be_cat_error
2069386,28,retrieval_trial,7856.63500000373,monkey,camera,ANIMAL,goat,11,OA,L,error,FALSE,monkey,wc_event_error
2069386,29,retrieval_trial,4325.50000000629,bear,ice cream,ANIMAL,zebra,8,OA,L,error,FALSE,bear,wc_event_error
2069386,30,retrieval_trial,5011.94500000565,panda,book,ANIMAL,kangaroo,7,OA,L,error,FALSE,panda,wc_event_error
2069386,31,retrieval_trial,5826.34999998845,goat,post office,OBJECT,backpack,4,LO,A,error,FALSE,goat,be_cat_error
2069386,32,retrieval_trial,3893.51500000339,library,hamster,LOCATION,cruise ship,16,AL,O,error,FALSE,library,wc_event_error
2069386,33,retrieval_trial,6361.0650000046,mountain,badger,LOCATION,gym,17,AL,O,error,FALSE,mountain,wc_event_error
2069386,34,retrieval_trial,3286.43499998725,keys,church,OBJECT,skipping rope,3,LO,A,error,FALSE,keys,wc_event_error
2069386,35,retrieval_trial,2420.26500002248,living room,monkey,LOCATION,living room,15,AL,O,1,FALSE,living room,1
2069386,36,retrieval_trial,7830.61499998439,hill,chicken,LOCATION,forest,13,AL,O,CHECK,CHECK,hill,CHECK
2069386,37,retrieval_trial,4331.65000000736,pig,box,ANIMAL,flamingo,10,OA,L,error,FALSE,pig,wc_event_error
2069386,38,retrieval_trial,5580.79000000726,keys,theatre,OBJECT,dice,1,LO,A,error,FALSE,keys,wc_event_error
2069537,3,retrieval_trial,1311.12500000745,church,skipping rope,LOCATION,church,3,OL,A,1,FALSE,church,1
2069537,4,retrieval_trial,7497.23999993876,cat,forest,ANIMAL,chicken,13,LA,O,error,FALSE,cat,wc_event_error
2069537,5,retrieval_trial,9973.147,NA,carrot,LOCATION,circus,5,OL,A,error,FALSE,NA,miss
2069537,6,retrieval_trial,2434.46499994025,mouse,cruise ship,ANIMAL,hamster,16,LA,O,error,FALSE,mouse,wc_event_error
2069537,7,retrieval_trial,4080.79000003636,bike,bear,OBJECT,mug,12,AO,L,error,FALSE,bike,wc_event_error
2069537,8,retrieval_trial,8464.34499975294,museum,dice,LOCATION,theatre,1,OL,A,error,FALSE,museum,wc_event_error
2069537,9,retrieval_trial,6219.08500045538,park,backpack,LOCATION,post office,4,OL,A,error,FALSE,park,wc_event_error
2069537,10,retrieval_trial,7942.9250000976,rat,railway station,ANIMAL,pig,14,LA,O,CHECK,CHECK,rat,CHECK
2069537,11,retrieval_trial,4301.23500013724,cat,university,ANIMAL,wolf,18,LA,O,error,FALSE,cat,wc_event_error
2069537,12,retrieval_trial,7602.73499973118,book,goat,OBJECT,camera,11,AO,L,error,FALSE,book,wc_event_error
2069537,13,retrieval_trial,3869.55499975011,cat,living room,ANIMAL,monkey,15,LA,O,error,FALSE,cat,wc_event_error
2069537,14,retrieval_trial,2744.51499991119,hill,kite,LOCATION,classroom,2,OL,A,CHECK,CHECK,hill,CHECK
2069537,15,retrieval_trial,1820.89999970049,book,kangaroo,OBJECT,book,7,AO,L,1,FALSE,book,1
2069537,16,retrieval_trial,3778.26000005007,box,flamingo,OBJECT,box,10,AO,L,1,FALSE,box,1
2069537,17,retrieval_trial,3040.92500032857,hippo,gym,ANIMAL,badger,17,LA,O,error,FALSE,hippo,wc_event_error
2069537,18,retrieval_trial,3118.59499989077,headphones,butterfly,OBJECT,spoon,9,AO,L,error,FALSE,headphones,wc_event_error
2069537,19,retrieval_trial,8496.604999993,keys,zebra,OBJECT,ice cream,8,AO,L,error,TRUE,key,wc_event_error
2069537,20,retrieval_trial,3343.89499993995,mountain,clock,LOCATION,mountain,6,OL,A,1,FALSE,mountain,1
2069537,21,retrieval_trial,1497.37500026822,skipping rope,church,OBJECT,skipping rope,3,LO,A,1,FALSE,skipping rope,1
2069537,22,retrieval_trial,2820.29000017792,bag,post office,OBJECT,backpack,4,LO,A,CHECK,CHECK,bag,CHECK
2069537,23,retrieval_trial,3758.45000008121,reindeer,ice cream,ANIMAL,zebra,8,OA,L,error,FALSE,reindeer,wc_event_error
2069537,24,retrieval_trial,3408.89500034973,city,monkey,LOCATION,living room,15,AL,O,error,FALSE,city,wc_event_error
2069537,25,retrieval_trial,4046.24499985948,wolf,mug,ANIMAL,bear,12,OA,L,error,FALSE,wolf,wc_event_error
2069537,26,retrieval_trial,1335.35499963909,kangaroo,book,ANIMAL,kangaroo,7,OA,L,1,FALSE,kangaroo,1
2069537,27,retrieval_trial,3876.84000004083,museum,hamster,LOCATION,cruise ship,16,AL,O,error,FALSE,museum,wc_event_error
2069537,28,retrieval_trial,6092.86000020802,airport,badger,LOCATION,gym,17,AL,O,error,TRUE,aiprort,wc_event_error
2069537,29,retrieval_trial,2299.60000002757,forest,chicken,LOCATION,forest,13,AL,O,1,FALSE,forest,1
2069537,30,retrieval_trial,2865.56000029668,butterfly,spoon,ANIMAL,butterfly,9,OA,L,1,FALSE,butterfly,1
2069537,31,retrieval_trial,2912.50499989837,city,wolf,LOCATION,university,18,AL,O,error,FALSE,city,wc_event_error
2069537,32,retrieval_trial,2276.99999976903,flamingo,box,ANIMAL,flamingo,10,OA,L,1,FALSE,flamingo,1
2069537,33,retrieval_trial,5935.72500022128,knife,circus,OBJECT,carrot,5,LO,A,CHECK,CHECK,knife,CHECK
2069537,34,retrieval_trial,5685.68000011146,chalk,classroom,OBJECT,kite,2,LO,A,CHECK,CHECK,chalk,CHECK
2069537,35,retrieval_trial,1648.69000017643,dice,theatre,OBJECT,dice,1,LO,A,1,FALSE,dice,1
2069537,36,retrieval_trial,5774.27500020713,reindeer,camera,ANIMAL,goat,11,OA,L,error,FALSE,reindeer,wc_event_error
2069537,37,retrieval_trial,4105.2600000985,museum,pig,LOCATION,railway station,14,AL,O,error,FALSE,museum,wc_event_error
2069537,38,retrieval_trial,1673.87000005692,clock,mountain,OBJECT,clock,6,LO,A,1,FALSE,clock,1
2075954,3,retrieval_trial,2700.60500002,house,carrot,LOCATION,circus,5,OL,A,CHECK,CHECK,house,CHECK
2075954,4,retrieval_trial,9989.73299999995,station,kite,LOCATION,classroom,2,OL,A,CHECK,CHECK,station,CHECK
2075954,5,retrieval_trial,4578.7700000219,rabbit,railway station,ANIMAL,pig,14,LA,O,error,FALSE,rabbit,wc_event_error
2075954,6,retrieval_trial,6045.26500008069,store,backpack,LOCATION,post office,4,OL,A,CHECK,CHECK,store,CHECK
2075954,7,retrieval_trial,3962.434999994,owl,gym,ANIMAL,badger,17,LA,O,CHECK,CHECK,owl,CHECK
2075954,8,retrieval_trial,2029.31000001263,snake,university,ANIMAL,wolf,18,LA,O,error,FALSE,snake,wc_event_error
2075954,9,retrieval_trial,3619.35499997344,cup,kangaroo,OBJECT,book,7,AO,L,CHECK,CHECK,cup,CHECK
2075954,10,retrieval_trial,5682.87999997847,bottle,flamingo,OBJECT,box,10,AO,L,error,FALSE,bottle,wc_event_error
2075954,11,retrieval_trial,3643.69999989867,kangaroo,cruise ship,ANIMAL,hamster,16,LA,O,error,FALSE,kangaroo,wc_event_error
2075954,12,retrieval_trial,6903.15000002738,spa,dice,LOCATION,theatre,1,OL,A,CHECK,CHECK,spa,CHECK
2075954,13,retrieval_trial,4308.00499999896,tiger,living room,ANIMAL,monkey,15,LA,O,error,FALSE,tiger,wc_event_error
2075954,14,retrieval_trial,2514.35000007041,monkey,forest,ANIMAL,chicken,13,LA,O,error,FALSE,monkey,wc_event_error
2075954,15,retrieval_trial,9991.17600000004,ha,butterfly,OBJECT,spoon,9,AO,L,CHECK,CHECK,ha,CHECK
2075954,16,retrieval_trial,9991.39299999998,rat,zebra,OBJECT,ice cream,8,AO,L,CHECK,CHECK,rat,CHECK
2075954,17,retrieval_trial,9991.08100000001,cup,bear,OBJECT,mug,12,AO,L,CHECK,CHECK,cup,CHECK
2075954,18,retrieval_trial,9991.10499999998,hawai,clock,LOCATION,mountain,6,OL,A,CHECK,CHECK,hawai,CHECK
2075954,19,retrieval_trial,8515.11499995831,plate,goat,OBJECT,camera,11,AO,L,CHECK,CHECK,plate,CHECK
2075954,20,retrieval_trial,6621.55000003986,hill,skipping rope,LOCATION,church,3,OL,A,CHECK,CHECK,hill,CHECK
2075954,21,retrieval_trial,2594.46500008926,tiger,spoon,ANIMAL,butterfly,9,OA,L,error,FALSE,tiger,wc_event_error
2075954,22,retrieval_trial,3641.04500005487,bank,monkey,LOCATION,living room,15,AL,O,error,FALSE,bank,wc_event_error
2075954,23,retrieval_trial,2393.33999995142,home,wolf,LOCATION,university,18,AL,O,CHECK,CHECK,home,CHECK
2075954,24,retrieval_trial,2987.53499996383,mug,mountain,OBJECT,clock,6,LO,A,error,FALSE,mug,wc_event_error
2075954,25,retrieval_trial,3552.8349999804,mall,chicken,LOCATION,forest,13,AL,O,CHECK,CHECK,mall,CHECK
2075954,26,retrieval_trial,2461.32499992382,owl,ice cream,ANIMAL,zebra,8,OA,L,CHECK,CHECK,owl,CHECK
2075954,27,retrieval_trial,5439.63500007521,home,pig,LOCATION,railway station,14,AL,O,CHECK,CHECK,home,CHECK
2075954,28,retrieval_trial,9991.02099999995,train station,hamster,LOCATION,cruise ship,16,AL,O,CHECK,CHECK,train station,CHECK
2075954,29,retrieval_trial,4327.98000006005,mug,church,OBJECT,skipping rope,3,LO,A,error,FALSE,mug,wc_event_error
2075954,30,retrieval_trial,2742.6549999509,mug,post office,OBJECT,backpack,4,LO,A,error,FALSE,mug,wc_event_error
2075954,31,retrieval_trial,2283.87500008103,monkey,camera,ANIMAL,goat,11,OA,L,error,FALSE,monkey,wc_event_error
2075954,32,retrieval_trial,3392.46999996249,book,classroom,OBJECT,kite,2,LO,A,error,FALSE,book,wc_event_error
2075954,33,retrieval_trial,4589.47500004433,pig,book,ANIMAL,kangaroo,7,OA,L,error,FALSE,pig,wc_event_error
2075954,34,retrieval_trial,4254.73499996588,paper,circus,OBJECT,carrot,5,LO,A,CHECK,CHECK,paper,CHECK
2075954,35,retrieval_trial,6425.6400000304,horse,mug,ANIMAL,bear,12,OA,L,error,FALSE,horse,wc_event_error
2075954,36,retrieval_trial,3585.8049999224,hat,theatre,OBJECT,dice,1,LO,A,error,FALSE,hat,wc_event_error
2075954,37,retrieval_trial,2561.71000003815,rabbit,box,ANIMAL,flamingo,10,OA,L,error,FALSE,rabbit,wc_event_error
2075954,38,retrieval_trial,9982.93400000012,dat,badger,LOCATION,gym,17,AL,O,CHECK,CHECK,dat,CHECK
2069374,3,retrieval_trial,3947.63000000967,bat,jail,ANIMAL,cat,34,LA,O,error,FALSE,bat,wc_event_error
2069374,4,retrieval_trial,5013.68999999249,bat,bus stop,ANIMAL,crocodile,35,LA,O,error,FALSE,bat,wc_event_error
2069374,5,retrieval_trial,2818.03500000387,bat,park,ANIMAL,lion,31,LA,O,error,FALSE,bat,wc_event_error
2069374,6,retrieval_trial,4395.36500000395,bat,lamp,LOCATION,cafe,22,OL,A,error,FALSE,bat,be_cat_error
2069374,7,retrieval_trial,2785.34999996191,whale,whisk,LOCATION,aquarium,21,OL,A,error,FALSE,whale,be_cat_error
2069374,8,retrieval_trial,2501.22999999439,whale,wallet,LOCATION,balcony,23,OL,A,error,FALSE,whale,be_cat_error
2069374,9,retrieval_trial,2715.12499998789,mouse,city,ANIMAL,frog,36,LA,O,error,FALSE,mouse,wc_event_error
2069374,10,retrieval_trial,2163.52000000188,bear,platypus,OBJECT,sock,27,AO,L,error,TRUE,bar,be_cat_error
2069374,11,retrieval_trial,1918.73000003397,bat,handbag,LOCATION,stadium,19,OL,A,error,FALSE,bat,be_cat_error
2069374,12,retrieval_trial,2154.91500002099,fly,dragonfly,OBJECT,headphones,25,AO,L,CHECK,CHECK,fly,CHECK
2069374,13,retrieval_trial,2378.78999998793,violin,violin,LOCATION,garage,20,OL,A,error,FALSE,violin,we_cat_error
2069374,14,retrieval_trial,1758.90499999514,bat,bedroom,ANIMAL,tortoise,32,LA,O,error,FALSE,bat,wc_event_error
2069374,15,retrieval_trial,2758.8799999794,tiger,tiger,OBJECT,cake,30,AO,L,error,TRUE,tige,we_cat_error
2069374,16,retrieval_trial,2407.9550000024,bat,vase,LOCATION,bakery,24,OL,A,error,FALSE,bat,be_cat_error
2069374,17,retrieval_trial,3355.21499998868,bath,bat,OBJECT,bottle,26,AO,L,CHECK,CHECK,bath,CHECK
2069374,18,retrieval_trial,1624.75000001723,bat,reindeer,OBJECT,paintbrush,29,AO,L,error,FALSE,bat,be_cat_error
2069374,19,retrieval_trial,2067.50000000466,camel,camel,OBJECT,bike,28,AO,L,error,FALSE,camel,we_cat_error
2069374,20,retrieval_trial,1859.65999995824,horse,hospital,ANIMAL,fox,33,LA,O,error,FALSE,horse,wc_event_error
2069374,21,retrieval_trial,8031.82499995455,wju,lion,LOCATION,park,31,AL,O,CHECK,CHECK,wju,CHECK
2069374,22,retrieval_trial,3292.19500004547,lake,cake,ANIMAL,tiger,30,OA,L,error,FALSE,lake,be_cat_error
2069374,23,retrieval_trial,1755.21000003209,lake,cat,LOCATION,jail,34,AL,O,error,FALSE,lake,wc_event_error
2069374,24,retrieval_trial,1573.59499996528,lake,aquarium,OBJECT,whisk,21,LO,A,error,FALSE,lake,be_cat_error
2069374,25,retrieval_trial,2372.20499996329,bat,sock,ANIMAL,platypus,27,OA,L,error,FALSE,bat,wc_event_error
2069374,26,retrieval_trial,1801.86499998672,lake,tortoise,LOCATION,bedroom,32,AL,O,error,FALSE,lake,wc_event_error
2069374,27,retrieval_trial,4796.0000000312,lake,balcony,OBJECT,wallet,23,LO,A,error,FALSE,lake,be_cat_error
2069374,28,retrieval_trial,1374.29500004509,lake,bakery,OBJECT,vase,24,LO,A,error,FALSE,lake,be_cat_error
2069374,29,retrieval_trial,1849.40000000643,lake,fox,LOCATION,hospital,33,AL,O,error,FALSE,lake,wc_event_error
2069374,30,retrieval_trial,4224.07500003465,bat,bike,ANIMAL,camel,28,OA,L,error,FALSE,bat,wc_event_error
2069374,31,retrieval_trial,1794.3400000222,lake,frog,LOCATION,city,36,AL,O,error,FALSE,lake,wc_event_error
2069374,32,retrieval_trial,2820.27500000549,rat,headphones,ANIMAL,dragonfly,25,OA,L,CHECK,CHECK,rat,CHECK
2069374,33,retrieval_trial,6714.66499997769,rat,garage,OBJECT,violin,20,LO,A,CHECK,CHECK,rat,CHECK
2069374,34,retrieval_trial,3765.3949999949,lake,stadium,OBJECT,handbag,19,LO,A,error,FALSE,lake,be_cat_error
2069374,35,retrieval_trial,3633.2050000201,bat,bottle,ANIMAL,bat,26,OA,L,1,FALSE,bat,1
2069374,36,retrieval_trial,3082.12999999523,lake,crocodile,LOCATION,bus stop,35,AL,O,error,FALSE,lake,wc_event_error
2069374,37,retrieval_trial,2262.52500002738,fish,paintbrush,ANIMAL,reindeer,29,OA,L,error,FALSE,fish,wc_event_error
2069374,38,retrieval_trial,1579.64000001084,lake,cafe,OBJECT,lamp,22,LO,A,error,FALSE,lake,be_cat_error
2075949,3,retrieval_trial,2029.13999930024,crocodile,bus stop,ANIMAL,crocodile,35,LA,O,1,FALSE,crocodile,1
2075949,4,retrieval_trial,7289.21499848366,meerkat,city,ANIMAL,frog,36,LA,O,error,FALSE,meerkat,wc_event_error
2075949,5,retrieval_trial,3919.15499791503,theatre,wallet,LOCATION,balcony,23,OL,A,error,FALSE,theatre,wc_event_error
2075949,6,retrieval_trial,4423.14499989152,wallet,bat,OBJECT,bottle,26,AO,L,error,FALSE,wallet,wc_event_error
2075949,7,retrieval_trial,3336.44999936223,bike,camel,OBJECT,bike,28,AO,L,1,FALSE,bike,1
2075949,8,retrieval_trial,3774.15000274777,dragonfly,park,ANIMAL,lion,31,LA,O,error,FALSE,dragonfly,wc_event_error
2075949,9,retrieval_trial,4123.64000082016,living room,vase,LOCATION,bakery,24,OL,A,error,FALSE,living room,wc_event_error
2075949,10,retrieval_trial,4344.42999958992,glasses,dragonfly,OBJECT,headphones,25,AO,L,error,FALSE,glasses,wc_event_error
2075949,11,retrieval_trial,7814.84999880195,mountain,violin,LOCATION,garage,20,OL,A,error,FALSE,mountain,wc_event_error
2075949,12,retrieval_trial,3952.73000001907,violin,reindeer,OBJECT,paintbrush,29,AO,L,error,FALSE,violin,wc_event_error
2075949,13,retrieval_trial,5147.82999828458,watch,platypus,OBJECT,sock,27,AO,L,CHECK,CHECK,watch,CHECK
2075949,14,retrieval_trial,5694.00999695063,garage,lamp,LOCATION,cafe,22,OL,A,error,FALSE,garage,wc_event_error
2075949,15,retrieval_trial,4947.31000065804,fair,whisk,LOCATION,aquarium,21,OL,A,CHECK,CHECK,fair,CHECK
2075949,16,retrieval_trial,2029.07999977469,frog,hospital,ANIMAL,fox,33,LA,O,error,FALSE,frog,wc_event_error
2075949,17,retrieval_trial,5599.46499764919,shark,jail,ANIMAL,cat,34,LA,O,error,FALSE,shark,wc_event_error
2075949,18,retrieval_trial,5783.08999910951,raccoon,bedroom,ANIMAL,tortoise,32,LA,O,error,TRUE,racoon,wc_event_error
2075949,19,retrieval_trial,4039.54999893904,suitcase,tiger,OBJECT,cake,30,AO,L,CHECK,CHECK,suitcase,CHECK
2075949,20,retrieval_trial,3850.58499872684,stadium,handbag,LOCATION,stadium,19,OL,A,1,FALSE,stadium,1
2075949,21,retrieval_trial,2641.2850022316,house,fox,LOCATION,hospital,33,AL,O,CHECK,CHECK,house,CHECK
2075949,22,retrieval_trial,2533.1850014627,jail,cat,LOCATION,jail,34,AL,O,1,FALSE,jail,1
2075949,23,retrieval_trial,3571.38499990106,moose,paintbrush,ANIMAL,reindeer,29,OA,L,CHECK,CHECK,moose,CHECK
2075949,24,retrieval_trial,4621.28499895334,cow,headphones,ANIMAL,dragonfly,25,OA,L,error,FALSE,cow,wc_event_error
2075949,25,retrieval_trial,3067.02999770641,city,frog,LOCATION,city,36,AL,O,1,FALSE,city,1
2075949,26,retrieval_trial,3045.21499946713,bear,cake,ANIMAL,tiger,30,OA,L,error,FALSE,bear,wc_event_error
2075949,27,retrieval_trial,5816.33999943733,purse,balcony,OBJECT,wallet,23,LO,A,CHECK,CHECK,purse,CHECK
2075949,28,retrieval_trial,3220.75499966741,lamp,garage,OBJECT,violin,20,LO,A,error,FALSE,lamp,wc_event_error
2075949,29,retrieval_trial,1847.36000001431,camel,bike,ANIMAL,camel,28,OA,L,1,FALSE,camel,1
2075949,30,retrieval_trial,4833.91499891877,raccoon,bottle,ANIMAL,bat,26,OA,L,error,TRUE,racoon,wc_event_error
2075949,31,retrieval_trial,5662.0550006628,torch,bakery,OBJECT,vase,24,LO,A,error,FALSE,torch,wc_event_error
2075949,32,retrieval_trial,7681.44999817014,ant,sock,ANIMAL,platypus,27,OA,L,error,FALSE,ant,wc_event_error
2075949,33,retrieval_trial,5206.87999948859,cafe,tortoise,LOCATION,bedroom,32,AL,O,error,FALSE,cafe,wc_event_error
2075949,34,retrieval_trial,6476.7749980092,torch,cafe,OBJECT,lamp,22,LO,A,error,FALSE,torch,wc_event_error
2075949,35,retrieval_trial,4509.23999771476,beach,lion,LOCATION,park,31,AL,O,error,FALSE,beach,wc_event_error
2075949,36,retrieval_trial,1762.52999901772,whisk,aquarium,OBJECT,whisk,21,LO,A,1,FALSE,whisk,1
2075949,37,retrieval_trial,3439.84500318766,purse,stadium,OBJECT,handbag,19,LO,A,CHECK,CHECK,purse,CHECK
2075949,38,retrieval_trial,6303.70500311255,garage,crocodile,LOCATION,bus stop,35,AL,O,error,FALSE,garage,wc_event_error
2075962,3,retrieval_trial,4678.40999993496,station,handbag,LOCATION,stadium,19,OL,A,CHECK,CHECK,station,CHECK
2075962,4,retrieval_trial,2645.23999998346,aquarium,whisk,LOCATION,aquarium,21,OL,A,1,FALSE,aquarium,1
2075962,5,retrieval_trial,2026.58999990672,sock,platypus,OBJECT,sock,27,AO,L,1,FALSE,sock,1
2075962,6,retrieval_trial,5995.50000019372,supermarket,wallet,LOCATION,balcony,23,OL,A,error,FALSE,supermarket,wc_event_error
2075962,7,retrieval_trial,7002.95499991626,NA,reindeer,OBJECT,paintbrush,29,AO,L,error,FALSE,NA,miss
2075962,8,retrieval_trial,5598.80500007421,library,violin,LOCATION,garage,20,OL,A,error,FALSE,library,wc_event_error
2075962,9,retrieval_trial,1973.81500015035,crocodile,bus stop,ANIMAL,crocodile,35,LA,O,1,FALSE,crocodile,1
2075962,10,retrieval_trial,9990.75599999999,church,vase,LOCATION,bakery,24,OL,A,error,FALSE,church,wc_event_error
2075962,11,retrieval_trial,4358.17999998108,cake,tiger,OBJECT,cake,30,AO,L,1,FALSE,cake,1
2075962,12,retrieval_trial,6727.779999841,dog,hospital,ANIMAL,fox,33,LA,O,error,FALSE,dog,wc_event_error
2075962,13,retrieval_trial,8922.86999989301,sock,camel,OBJECT,bike,28,AO,L,error,FALSE,sock,wc_event_error
2075962,14,retrieval_trial,4895.75000014156,wolf,city,ANIMAL,frog,36,LA,O,error,FALSE,wolf,wc_event_error
2075962,15,retrieval_trial,2322.93999986723,cat,jail,ANIMAL,cat,34,LA,O,1,FALSE,cat,1
2075962,16,retrieval_trial,7344.40999990329,dog,bedroom,ANIMAL,tortoise,32,LA,O,error,FALSE,dog,wc_event_error
2075962,17,retrieval_trial,7217.89500000887,mouse,park,ANIMAL,lion,31,LA,O,error,FALSE,mouse,wc_event_error
2075962,18,retrieval_trial,4149.74499982782,headphones,dragonfly,OBJECT,headphones,25,AO,L,1,FALSE,headphones,1
2075962,19,retrieval_trial,7285.90000001714,library,lamp,LOCATION,cafe,22,OL,A,error,FALSE,library,wc_event_error
2075962,20,retrieval_trial,2889.51499992982,bottle,bat,OBJECT,bottle,26,AO,L,1,FALSE,bottle,1
2075962,21,retrieval_trial,2012.86500017159,bat,bottle,ANIMAL,bat,26,OA,L,1,FALSE,bat,1
2075962,22,retrieval_trial,6511.73499994911,owl,stadium,OBJECT,handbag,19,LO,A,CHECK,CHECK,owl,CHECK
2075962,23,retrieval_trial,2643.51000008173,reindeer,paintbrush,ANIMAL,reindeer,29,OA,L,1,FALSE,reindeer,1
2075962,24,retrieval_trial,5114.11500000395,whisk,aquarium,OBJECT,whisk,21,LO,A,1,FALSE,whisk,1
2075962,25,retrieval_trial,6848.81000011228,lion,cake,ANIMAL,tiger,30,OA,L,error,FALSE,lion,wc_event_error
2075962,26,retrieval_trial,4763.38499994017,library,frog,LOCATION,city,36,AL,O,error,FALSE,library,wc_event_error
2075962,27,retrieval_trial,5112.17500013299,vase,bakery,OBJECT,vase,24,LO,A,1,FALSE,vase,1
2075962,28,retrieval_trial,1904.64500011876,jail,cat,LOCATION,jail,34,AL,O,1,FALSE,jail,1
2075962,29,retrieval_trial,9990.10100000002,NA,cafe,OBJECT,lamp,22,LO,A,error,FALSE,NA,miss
2075962,30,retrieval_trial,4546.61499988288,supermarket,fox,LOCATION,hospital,33,AL,O,error,FALSE,supermarket,wc_event_error
2075962,31,retrieval_trial,1503.3650000114,dragonfly,headphones,ANIMAL,dragonfly,25,OA,L,1,FALSE,dragonfly,1
2075962,32,retrieval_trial,3010.40500006638,bedroom,tortoise,LOCATION,bedroom,32,AL,O,1,FALSE,bedroom,1
2075962,33,retrieval_trial,1270.66999999806,camel,bike,ANIMAL,camel,28,OA,L,1,FALSE,camel,1
2075962,34,retrieval_trial,5989.18999987654,mouse,garage,OBJECT,violin,20,LO,A,error,FALSE,mouse,be_cat_error
2075962,35,retrieval_trial,2944.99500002712,bus stop,crocodile,LOCATION,bus stop,35,AL,O,1,TRUE,busstop,1
2075962,36,retrieval_trial,7382.31000001542,cake,balcony,OBJECT,wallet,23,LO,A,error,FALSE,cake,wc_event_error
2075962,37,retrieval_trial,1431.63499981165,platypus,sock,ANIMAL,platypus,27,OA,L,1,FALSE,platypus,1
2075962,38,retrieval_trial,2329.8299999442,park,lion,LOCATION,park,31,AL,O,1,FALSE,park,1
2069377,3,retrieval_trial,3563.84500000422,museum,hammer,LOCATION,pharmacy,54,OL,A,error,FALSE,museum,wc_event_error
2069377,4,retrieval_trial,3135.71000000229,mallet,horse,OBJECT,phone,37,AO,L,CHECK,CHECK,mallet,CHECK
2069377,5,retrieval_trial,2196.47500000428,chainsaw,squirrel,OBJECT,drum,39,AO,L,error,FALSE,chainsaw,wc_event_error
2069377,6,retrieval_trial,3933.36999999883,ant,screwdriver,LOCATION,factory,49,OL,A,error,FALSE,ant,be_cat_error
2069377,7,retrieval_trial,3946.70000000042,monkey],calculator,LOCATION,museum,52,OL,A,CHECK,CHECK,monkey],CHECK
2069377,8,retrieval_trial,4115.174999999,house,television,LOCATION,beach,53,OL,A,CHECK,CHECK,house,CHECK
2069377,9,retrieval_trial,3151.14999999787,screwdriver,elephant,OBJECT,shoe,40,AO,L,error,FALSE,screwdriver,wc_event_error
2069377,10,retrieval_trial,4227.92499999923,carrot,rabbit,OBJECT,balloon,42,AO,L,error,FALSE,carrot,wc_event_error
2069377,11,retrieval_trial,3257.16999999713,dress,bee,OBJECT,candle,38,AO,L,CHECK,CHECK,dress,CHECK
2069377,12,retrieval_trial,2278.85000000242,octapus,necklace,LOCATION,vineyard,51,OL,A,CHECK,CHECK,octapus,CHECK
2069377,13,retrieval_trial,5337.52500000264,platapus,windmill,ANIMAL,duck,48,LA,O,CHECK,CHECK,platapus,CHECK
2069377,14,retrieval_trial,2393.49499999662,whale,harbour,ANIMAL,peacock,47,LA,O,error,FALSE,whale,wc_event_error
2069377,15,retrieval_trial,4575.64499999717,dog,car park,ANIMAL,hippo,44,LA,O,error,FALSE,dog,wc_event_error
2069377,16,retrieval_trial,2013.08000000427,pen,penguin,OBJECT,whistle,41,AO,L,error,FALSE,pen,wc_event_error
2069377,17,retrieval_trial,3549.8099999968,octapus,casino,ANIMAL,octopus,43,LA,O,CHECK,CHECK,octapus,CHECK
2069377,18,retrieval_trial,4642.15499999409,platapus,nightclub,ANIMAL,aardvark,45,LA,O,CHECK,CHECK,platapus,CHECK
2069377,19,retrieval_trial,2879.6199999997,penguin,cave,ANIMAL,dog,46,LA,O,error,FALSE,penguin,wc_event_error
2069377,20,retrieval_trial,3890.06499999959,cave,flower,LOCATION,basement,50,OL,A,error,FALSE,cave,wc_event_error
2069377,21,retrieval_trial,4012.17999999784,pen,factory,OBJECT,screwdriver,49,LO,A,error,FALSE,pen,wc_event_error
2069377,22,retrieval_trial,3008.64500000165,television,beach,OBJECT,television,53,LO,A,1,FALSE,television,1
2069377,23,retrieval_trial,3921.84000000264,pond,duck,LOCATION,windmill,48,AL,O,CHECK,CHECK,pond,CHECK
2069377,24,retrieval_trial,3941.52999999642,hippo,drum,ANIMAL,squirrel,39,OA,L,error,FALSE,hippo,wc_event_error
2069377,25,retrieval_trial,4877.99000000092,cat,balloon,ANIMAL,rabbit,42,OA,L,error,FALSE,cat,wc_event_error
2069377,26,retrieval_trial,3828.96500000055,bear,phone,ANIMAL,horse,37,OA,L,error,FALSE,bear,wc_event_error
2069377,27,retrieval_trial,4702.77500000515,hippo,candle,ANIMAL,bee,38,OA,L,error,FALSE,hippo,wc_event_error
2069377,28,retrieval_trial,2622.87999999546,cave,dog,LOCATION,cave,46,AL,O,1,FALSE,cave,1
2069377,29,retrieval_trial,3020.95499999984,bank,aardvark,LOCATION,nightclub,45,AL,O,error,FALSE,bank,wc_event_error
2069377,30,retrieval_trial,6724.16499999957,lightstick,vineyard,OBJECT,necklace,51,LO,A,CHECK,CHECK,lightstick,CHECK
2069377,31,retrieval_trial,3706.58999999438,lion,shoe,ANIMAL,elephant,40,OA,L,error,FALSE,lion,wc_event_error
2069377,32,retrieval_trial,4592.08999999834,s=2uir4rel,whistle,ANIMAL,penguin,41,OA,L,CHECK,CHECK,s=2uir4rel,CHECK
2069377,33,retrieval_trial,3478.88500000397,necklace,pharmacy,OBJECT,hammer,54,LO,A,error,FALSE,necklace,wc_event_error
2069377,34,retrieval_trial,2343.0950000037,casino,octopus,LOCATION,casino,43,AL,O,1,FALSE,casino,1
2069377,35,retrieval_trial,2591.24999999767,screwdriver,museum,OBJECT,calculator,52,LO,A,error,FALSE,screwdriver,wc_event_error
2069377,36,retrieval_trial,2153.14500000374,candle,basement,OBJECT,flower,50,LO,A,error,FALSE,candle,wc_event_error
2069377,37,retrieval_trial,3440.97000000323,bank,hippo,LOCATION,car park,44,AL,O,error,FALSE,bank,wc_event_error
2069377,38,retrieval_trial,3432.28500000259,board walk,peacock,LOCATION,harbour,47,AL,O,CHECK,CHECK,board walk,CHECK
2075947,3,retrieval_trial,3658.97500000005,hall,calculator,LOCATION,museum,52,OL,A,CHECK,CHECK,hall,CHECK
2075947,4,retrieval_trial,3933.13499999999,bear,windmill,ANIMAL,duck,48,LA,O,error,FALSE,bear,wc_event_error
2075947,5,retrieval_trial,5437.40999999999,city,flower,LOCATION,basement,50,OL,A,error,FALSE,city,wc_event_error
2075947,6,retrieval_trial,5285.89999999997,pool,screwdriver,LOCATION,factory,49,OL,A,CHECK,CHECK,pool,CHECK
2075947,7,retrieval_trial,3793.69000000009,do,car park,ANIMAL,hippo,44,LA,O,CHECK,CHECK,do,CHECK
2075947,8,retrieval_trial,4408.31999999999,paintbrush,bee,OBJECT,candle,38,AO,L,error,FALSE,paintbrush,wc_event_error
2075947,9,retrieval_trial,2640.67000000001,dog,cave,ANIMAL,dog,46,LA,O,1,FALSE,dog,1
2075947,10,retrieval_trial,3840.21499999994,rabbit,nightclub,ANIMAL,aardvark,45,LA,O,error,TRUE,rabbi,wc_event_error
2075947,11,retrieval_trial,9993.712,mouse,casino,ANIMAL,octopus,43,LA,O,error,FALSE,mouse,wc_event_error
2075947,12,retrieval_trial,5887.71999999994,house,hammer,LOCATION,pharmacy,54,OL,A,CHECK,CHECK,house,CHECK
2075947,13,retrieval_trial,704.24000000002,gas statio,necklace,LOCATION,vineyard,51,OL,A,CHECK,CHECK,gas statio,CHECK
2075947,14,retrieval_trial,5566.89500000016,town,television,LOCATION,beach,53,OL,A,CHECK,CHECK,town,CHECK
2075947,15,retrieval_trial,6934.73500000004,tusjm,penguin,OBJECT,whistle,41,AO,L,CHECK,CHECK,tusjm,CHECK
2075947,16,retrieval_trial,2569.79000000001,nut,squirrel,OBJECT,drum,39,AO,L,CHECK,CHECK,nut,CHECK
2075947,17,retrieval_trial,2631.84999999998,whale,harbour,ANIMAL,peacock,47,LA,O,error,FALSE,whale,wc_event_error
2075947,18,retrieval_trial,3942.31000000014,rope,horse,OBJECT,phone,37,AO,L,CHECK,CHECK,rope,CHECK
2075947,19,retrieval_trial,5243.42000000001,battery,elephant,OBJECT,shoe,40,AO,L,CHECK,CHECK,battery,CHECK
2075947,20,retrieval_trial,1890.46000000008,keys,rabbit,OBJECT,balloon,42,AO,L,error,TRUE,key,wc_event_error
2075947,21,retrieval_trial,9993.70199999993,sdf;l,vineyard,OBJECT,necklace,51,LO,A,CHECK,CHECK,sdf;l,CHECK
2075947,22,retrieval_trial,2204.68000000005,rabbit,whistle,ANIMAL,penguin,41,OA,L,error,TRUE,rabbi,wc_event_error
2075947,23,retrieval_trial,2488.94500000007,cave,dog,LOCATION,cave,46,AL,O,1,FALSE,cave,1
2075947,24,retrieval_trial,2692.84999999998,town,hippo,LOCATION,car park,44,AL,O,CHECK,CHECK,town,CHECK
2075947,25,retrieval_trial,6907.31000000006,bunny,balloon,ANIMAL,rabbit,42,OA,L,CHECK,CHECK,bunny,CHECK
2075947,26,retrieval_trial,4068.39500000002,penguin,candle,ANIMAL,bee,38,OA,L,error,FALSE,penguin,wc_event_error
2075947,27,retrieval_trial,7008.12,beach,peacock,LOCATION,harbour,47,AL,O,error,TRUE,beac,wc_event_error
2075947,28,retrieval_trial,3657.19999999995,tower,octopus,LOCATION,casino,43,AL,O,CHECK,CHECK,tower,CHECK
2075947,29,retrieval_trial,4362.58500000008,bird,shoe,ANIMAL,elephant,40,OA,L,CHECK,CHECK,bird,CHECK
2075947,30,retrieval_trial,6962.81000000006,termiyer,drum,ANIMAL,squirrel,39,OA,L,CHECK,CHECK,termiyer,CHECK
2075947,31,retrieval_trial,3561.95999999996,screwdriver,pharmacy,OBJECT,hammer,54,LO,A,error,FALSE,screwdriver,wc_event_error
2075947,32,retrieval_trial,4337.62000000011,wine opener,factory,OBJECT,screwdriver,49,LO,A,CHECK,CHECK,wine opener,CHECK
2075947,33,retrieval_trial,3617.85499999998,lighthouse,basement,OBJECT,flower,50,LO,A,error,TRUE,light,be_cat_error
2075947,34,retrieval_trial,6628.64500000002,camel,phone,ANIMAL,horse,37,OA,L,error,FALSE,camel,wc_event_error
2075947,35,retrieval_trial,3482.46999999997,the pyramids,duck,LOCATION,windmill,48,AL,O,CHECK,CHECK,the pyramids,CHECK
2075947,36,retrieval_trial,6141.68999999994,house,aardvark,LOCATION,nightclub,45,AL,O,CHECK,CHECK,house,CHECK
2075947,37,retrieval_trial,9993.82400000002,crab,museum,OBJECT,calculator,52,LO,A,error,FALSE,crab,we_cat_error
2075947,38,retrieval_trial,2938.70499999996,ball,beach,OBJECT,television,53,LO,A,error,FALSE,ball,wc_event_error
2075956,3,retrieval_trial,3880.55000000168,shoe,elephant,OBJECT,shoe,40,AO,L,1,FALSE,shoe,1
2075956,4,retrieval_trial,4504.16500000574,museum,calculator,LOCATION,museum,52,OL,A,1,FALSE,museum,1
2075956,5,retrieval_trial,8084.57000000635,fish,harbour,ANIMAL,peacock,47,LA,O,error,FALSE,fish,wc_event_error
2075956,6,retrieval_trial,7942.23000000056,church,television,LOCATION,beach,53,OL,A,error,FALSE,church,wc_event_error
2075956,7,retrieval_trial,8163.49999999511,phone,squirrel,OBJECT,drum,39,AO,L,error,FALSE,phone,wc_event_error
2075956,8,retrieval_trial,8810.42999999772,bee,casino,ANIMAL,octopus,43,LA,O,error,FALSE,bee,wc_event_error
2075956,9,retrieval_trial,9268.20000000589,fish,nightclub,ANIMAL,aardvark,45,LA,O,error,FALSE,fish,wc_event_error
2075956,10,retrieval_trial,9980.307,wis,penguin,OBJECT,whistle,41,AO,L,CHECK,CHECK,wis,CHECK
2075956,11,retrieval_trial,8055.37999999069,river,screwdriver,LOCATION,factory,49,OL,A,error,FALSE,river,wc_event_error
2075956,12,retrieval_trial,9979.60100000002,bakerr,flower,LOCATION,basement,50,OL,A,CHECK,CHECK,bakerr,CHECK
2075956,13,retrieval_trial,5964.68999999342,candle,bee,OBJECT,candle,38,AO,L,1,FALSE,candle,1
2075956,14,retrieval_trial,8353.14500000095,panda,cave,ANIMAL,dog,46,LA,O,error,FALSE,panda,wc_event_error
2075956,15,retrieval_trial,8177.08000000857,umbrella,horse,OBJECT,phone,37,AO,L,error,FALSE,umbrella,wc_event_error
2075956,16,retrieval_trial,9979.90100000001,NA,necklace,LOCATION,vineyard,51,OL,A,error,FALSE,NA,miss
2075956,17,retrieval_trial,7497.48999999429,classroom,hammer,LOCATION,pharmacy,54,OL,A,error,FALSE,classroom,wc_event_error
2075956,18,retrieval_trial,9979.734,ba,car park,ANIMAL,hippo,44,LA,O,CHECK,CHECK,ba,CHECK
2075956,19,retrieval_trial,6690.4349999968,duck,windmill,ANIMAL,duck,48,LA,O,1,FALSE,duck,1
2075956,20,retrieval_trial,5511.05000000098,balloon,rabbit,OBJECT,balloon,42,AO,L,1,FALSE,balloon,1
2075956,21,retrieval_trial,6726.73000000941,panda,whistle,ANIMAL,penguin,41,OA,L,error,FALSE,panda,wc_event_error
2075956,22,retrieval_trial,6063.24499999755,whake,vineyard,OBJECT,necklace,51,LO,A,CHECK,CHECK,whake,CHECK
2075956,23,retrieval_trial,8067.39999999991,cow,phone,ANIMAL,horse,37,OA,L,error,FALSE,cow,wc_event_error
2075956,24,retrieval_trial,7454.98000000953,bat,shoe,ANIMAL,elephant,40,OA,L,error,FALSE,bat,wc_event_error
2075956,25,retrieval_trial,5647.66000000236,windmill,duck,LOCATION,windmill,48,AL,O,1,FALSE,windmill,1
2075956,26,retrieval_trial,7323.28000001144,parl,octopus,LOCATION,casino,43,AL,O,CHECK,CHECK,parl,CHECK
2075956,27,retrieval_trial,8879.1099999944,hammer,pharmacy,OBJECT,hammer,54,LO,A,1,FALSE,hammer,1
2075956,28,retrieval_trial,8545.65999998886,kitchen,hippo,LOCATION,car park,44,AL,O,error,FALSE,kitchen,wc_event_error
2075956,29,retrieval_trial,3490.55499999668,cave,dog,LOCATION,cave,46,AL,O,1,FALSE,cave,1
2075956,30,retrieval_trial,9606.5399999934,dog,candle,ANIMAL,bee,38,OA,L,error,FALSE,dog,wc_event_error
2075956,31,retrieval_trial,2983.229999998,harbour,peacock,LOCATION,harbour,47,AL,O,1,FALSE,harbour,1
2075956,32,retrieval_trial,5857.38000000129,sock,basement,OBJECT,flower,50,LO,A,error,FALSE,sock,wc_event_error
2075956,33,retrieval_trial,8164.94499999681,candke,museum,OBJECT,calculator,52,LO,A,CHECK,CHECK,candke,CHECK
2075956,34,retrieval_trial,8896.76000000327,wolf,balloon,ANIMAL,rabbit,42,OA,L,error,FALSE,wolf,wc_event_error
2075956,35,retrieval_trial,6702.35500000126,mouse,beach,OBJECT,television,53,LO,A,error,FALSE,mouse,we_cat_error
2075956,36,retrieval_trial,5947.1399999893,screwdriver,factory,OBJECT,screwdriver,49,LO,A,1,FALSE,screwdriver,1
2075956,37,retrieval_trial,8252.69000000844,froh,drum,ANIMAL,squirrel,39,OA,L,CHECK,CHECK,froh,CHECK
2075956,38,retrieval_trial,5863.99500000698,nightclub,aardvark,LOCATION,nightclub,45,AL,O,1,FALSE,nightclub,1
2076004,3,retrieval_trial,7315.83499999944,bedroom,hammer,LOCATION,pharmacy,54,OL,A,error,FALSE,bedroom,wc_event_error
2076004,4,retrieval_trial,5760.38999999949,cinema,penguin,OBJECT,whistle,41,AO,L,error,FALSE,cinema,be_cat_error
2076004,5,retrieval_trial,6037.0700000003,hippo,car park,ANIMAL,hippo,44,LA,O,1,FALSE,hippo,1
2076004,6,retrieval_trial,7047.34000000102,cinema,television,LOCATION,beach,53,OL,A,error,FALSE,cinema,wc_event_error
2076004,7,retrieval_trial,5257.56499999994,shoe,elephant,OBJECT,shoe,40,AO,L,1,FALSE,shoe,1
2076004,8,retrieval_trial,9976.45200000005,stadium,screwdriver,LOCATION,factory,49,OL,A,error,TRUE,stadi,wc_event_error
2076004,9,retrieval_trial,8061.51499999943,keys,bee,OBJECT,candle,38,AO,L,error,FALSE,keys,wc_event_error
2076004,10,retrieval_trial,9976.40600000008,rccpo,casino,ANIMAL,octopus,43,LA,O,CHECK,CHECK,rccpo,CHECK
2076004,11,retrieval_trial,6493.72500000033,lizard,windmill,ANIMAL,duck,48,LA,O,error,FALSE,lizard,wc_event_error
2076004,12,retrieval_trial,6807.50499999884,guitar,horse,OBJECT,phone,37,AO,L,error,TRUE,guitaer,wc_event_error
2076004,13,retrieval_trial,6249.21499999985,book,rabbit,OBJECT,balloon,42,AO,L,error,FALSE,book,wc_event_error
2076004,14,retrieval_trial,9976.34199999995,bedroom,necklace,LOCATION,vineyard,51,OL,A,error,TRUE,bedrroom,wc_event_error
2076004,15,retrieval_trial,7987.83499999996,ciena,calculator,LOCATION,museum,52,OL,A,CHECK,CHECK,ciena,CHECK
2076004,16,retrieval_trial,6613.27999999956,drum,squirrel,OBJECT,drum,39,AO,L,1,FALSE,drum,1
2076004,17,retrieval_trial,6840.53999999934,bear,cave,ANIMAL,dog,46,LA,O,error,FALSE,bear,wc_event_error
2076004,18,retrieval_trial,9976.37700000009,NA,harbour,ANIMAL,peacock,47,LA,O,error,FALSE,NA,miss
2076004,19,retrieval_trial,6444.33000000031,dragonfly,nightclub,ANIMAL,aardvark,45,LA,O,error,FALSE,dragonfly,wc_event_error
2076004,20,retrieval_trial,6051.84000000008,treehouse,flower,LOCATION,basement,50,OL,A,error,FALSE,treehouse,wc_event_error
2076004,21,retrieval_trial,8718.97499999986,biat,factory,OBJECT,screwdriver,49,LO,A,CHECK,CHECK,biat,CHECK
2076004,22,retrieval_trial,4719.88500000024,meerkat,balloon,ANIMAL,rabbit,42,OA,L,error,TRUE,merkat,wc_event_error
2076004,23,retrieval_trial,8613.59499999881,shepp,whistle,ANIMAL,penguin,41,OA,L,CHECK,CHECK,shepp,CHECK
2076004,24,retrieval_trial,4823.46999999927,book,vineyard,OBJECT,necklace,51,LO,A,error,FALSE,book,wc_event_error
2076004,25,retrieval_trial,9976.44999999995,binoculars,pharmacy,OBJECT,hammer,54,LO,A,error,TRUE,binocu,wc_event_error
2076004,26,retrieval_trial,6108.43999999994,cinema,aardvark,LOCATION,nightclub,45,AL,O,error,FALSE,cinema,wc_event_error
2076004,27,retrieval_trial,9976.34400000004,NA,beach,OBJECT,television,53,LO,A,error,FALSE,NA,miss
2076004,28,retrieval_trial,6721.98999999999,lizars,candle,ANIMAL,bee,38,OA,L,CHECK,CHECK,lizars,CHECK
2076004,29,retrieval_trial,9976.44999999995,NA,museum,OBJECT,calculator,52,LO,A,error,FALSE,NA,miss
2076004,30,retrieval_trial,2991.49499999848,squireel,drum,ANIMAL,squirrel,39,OA,L,CHECK,CHECK,squireel,CHECK
2076004,31,retrieval_trial,9976.44299999997,heafd,basement,OBJECT,flower,50,LO,A,CHECK,CHECK,heafd,CHECK
2076004,32,retrieval_trial,9976.48800000013,wke,shoe,ANIMAL,elephant,40,OA,L,CHECK,CHECK,wke,CHECK
2076004,33,retrieval_trial,5243.1649999998,harbour,octopus,LOCATION,casino,43,AL,O,error,FALSE,harbour,wc_event_error
2076004,34,retrieval_trial,5135.07500000019,car park,hippo,LOCATION,car park,44,AL,O,1,FALSE,car park,1
2076004,35,retrieval_trial,5268.67000000132,bedroom,dog,LOCATION,cave,46,AL,O,error,FALSE,bedroom,wc_event_error
2076004,36,retrieval_trial,6888.32499999995,tortoise,phone,ANIMAL,horse,37,OA,L,error,FALSE,tortoise,wc_event_error
2076004,37,retrieval_trial,9976.40399999986,NA,peacock,LOCATION,harbour,47,AL,O,error,FALSE,NA,miss
2076004,38,retrieval_trial,5276.51500000129,harbour,duck,LOCATION,windmill,48,AL,O,error,FALSE,harbour,wc_event_error
2069383,3,retrieval_trial,8217.42499992251,toothbrush,dog,OBJECT,toothbrush,46,AO,L,1,FALSE,toothbrush,1
2069383,4,retrieval_trial,2739.45500003174,lake,candle,LOCATION,lake,38,OL,A,1,FALSE,lake,1
2069383,5,retrieval_trial,9982.90800000001,NA,peacock,OBJECT,jigsaw,47,AO,L,error,FALSE,NA,miss
2069383,6,retrieval_trial,3987.67499998212,hat,aardvark,OBJECT,pen,45,AO,L,error,FALSE,hat,wc_event_error
2069383,7,retrieval_trial,5968.11499982141,paintbrush,duck,OBJECT,jacket,48,AO,L,error,FALSE,paintbrush,wc_event_error
2069383,8,retrieval_trial,3173.75499987975,scissors,octopus,OBJECT,scissors,43,AO,L,1,FALSE,scissors,1
2069383,9,retrieval_trial,3746.35999999009,cinema,shoe,LOCATION,cinema,40,OL,A,1,FALSE,cinema,1
2069383,10,retrieval_trial,7602.03000018373,ant,pharmacy,ANIMAL,beaver,54,LA,O,error,FALSE,ant,wc_event_error
2069383,11,retrieval_trial,9306.76999990828,bird,beach,ANIMAL,mouse,53,LA,O,CHECK,CHECK,bird,CHECK
2069383,12,retrieval_trial,4713.20999995805,library,whistle,LOCATION,library,41,OL,A,1,FALSE,library,1
2069383,13,retrieval_trial,9983.58099999998,NA,museum,ANIMAL,crab,52,LA,O,error,FALSE,NA,miss
2069383,14,retrieval_trial,7864.770000102,tiger,vineyard,ANIMAL,whale,51,LA,O,error,FALSE,tiger,wc_event_error
2069383,15,retrieval_trial,9983.196,cr,balloon,LOCATION,swimming pool,42,OL,A,CHECK,CHECK,cr,CHECK
2069383,16,retrieval_trial,6590.22999997251,lion,basement,ANIMAL,ostrich,50,LA,O,error,FALSE,lion,wc_event_error
2069383,17,retrieval_trial,4747.74000002071,binoculars,hippo,OBJECT,binoculars,44,AO,L,1,FALSE,binoculars,1
2069383,18,retrieval_trial,3884.47499996983,kitchen,phone,LOCATION,kitchen,37,OL,A,1,FALSE,kitchen,1
2069383,19,retrieval_trial,3039.70999992453,garage,drum,LOCATION,supermarket,39,OL,A,error,TRUE,garge,wc_event_error
2069383,20,retrieval_trial,7554.92000002414,tiger,factory,ANIMAL,lobster,49,LA,O,error,FALSE,tiger,wc_event_error
2069383,21,retrieval_trial,3606.39500012621,phone,kitchen,OBJECT,phone,37,LO,A,1,FALSE,phone,1
2069383,22,retrieval_trial,4607.61500010267,library,mouse,LOCATION,beach,53,AL,O,error,FALSE,library,wc_event_error
2069383,23,retrieval_trial,3705.02999983728,library,beaver,LOCATION,pharmacy,54,AL,O,error,FALSE,library,wc_event_error
2069383,24,retrieval_trial,5742.90499999188,octopus,scissors,ANIMAL,octopus,43,OA,L,1,FALSE,octopus,1
2069383,25,retrieval_trial,5192.69499997608,whistle,library,OBJECT,whistle,41,LO,A,1,FALSE,whistle,1
2069383,26,retrieval_trial,9983.19999999995,NA,ostrich,LOCATION,basement,50,AL,O,error,FALSE,NA,miss
2069383,27,retrieval_trial,3273.80999992602,ostrich,jigsaw,ANIMAL,peacock,47,OA,L,error,FALSE,ostrich,wc_event_error
2069383,28,retrieval_trial,3227.49499999918,drums,supermarket,OBJECT,drum,39,LO,A,CHECK,CHECK,drums,CHECK
2069383,29,retrieval_trial,7084.46000004187,garage,lobster,LOCATION,factory,49,AL,O,error,FALSE,garage,wc_event_error
2069383,30,retrieval_trial,5311.86499982141,mountain,whale,LOCATION,vineyard,51,AL,O,error,FALSE,mountain,wc_event_error
2069383,31,retrieval_trial,4829.70999996178,balloon,swimming pool,OBJECT,balloon,42,LO,A,1,TRUE,ballon,1
2069383,32,retrieval_trial,6961.74499997869,lion,jacket,ANIMAL,duck,48,OA,L,error,FALSE,lion,wc_event_error
2069383,33,retrieval_trial,8223.62499986775,aardvark,pen,ANIMAL,aardvark,45,OA,L,1,TRUE,aard,1
2069383,34,retrieval_trial,9983.25,NA,cinema,OBJECT,shoe,40,LO,A,error,FALSE,NA,miss
2069383,35,retrieval_trial,9983.21299999999,NA,crab,LOCATION,museum,52,AL,O,error,FALSE,NA,miss
2069383,36,retrieval_trial,2963.69499992579,dog,toothbrush,ANIMAL,dog,46,OA,L,1,FALSE,dog,1
2069383,37,retrieval_trial,1948.34500015713,hippo,binoculars,ANIMAL,hippo,44,OA,L,1,FALSE,hippo,1
2069383,38,retrieval_trial,4218.92499993555,candle,lake,OBJECT,candle,38,LO,A,1,FALSE,candle,1
2069363,3,retrieval_trial,3862.63000010513,mirror,hippo,OBJECT,binoculars,44,AO,L,CHECK,CHECK,mirror,CHECK
2069363,4,retrieval_trial,5362.32499987818,hamster,museum,ANIMAL,crab,52,LA,O,error,FALSE,hamster,wc_event_error
2069363,5,retrieval_trial,5550.04999996163,whale,beach,ANIMAL,mouse,53,LA,O,error,FALSE,whale,wc_event_error
2069363,6,retrieval_trial,2700.88499994017,puzzle,peacock,OBJECT,jigsaw,47,AO,L,CHECK,CHECK,puzzle,CHECK
2069363,7,retrieval_trial,3157.09000010975,whale,vineyard,ANIMAL,whale,51,LA,O,1,FALSE,whale,1
2069363,8,retrieval_trial,8420.674999943,miror,octopus,OBJECT,scissors,43,AO,L,CHECK,CHECK,miror,CHECK
2069363,9,retrieval_trial,4608.11500018463,mouse,pharmacy,ANIMAL,beaver,54,LA,O,error,FALSE,mouse,wc_event_error
2069363,10,retrieval_trial,5933.12000017613,pen,aardvark,OBJECT,pen,45,AO,L,1,FALSE,pen,1
2069363,11,retrieval_trial,6494.77500002831,home,phone,LOCATION,kitchen,37,OL,A,CHECK,CHECK,home,CHECK
2069363,12,retrieval_trial,7434.6699998714,hamster,basement,ANIMAL,ostrich,50,LA,O,error,FALSE,hamster,wc_event_error
2069363,13,retrieval_trial,6785.845000064,cinema,shoe,LOCATION,cinema,40,OL,A,1,FALSE,cinema,1
2069363,14,retrieval_trial,4554.7000002116,shoe,duck,OBJECT,jacket,48,AO,L,error,FALSE,shoe,wc_event_error
2069363,15,retrieval_trial,9984.05099999998,eh,candle,LOCATION,lake,38,OL,A,CHECK,CHECK,eh,CHECK
2069363,16,retrieval_trial,9984.06099999999,hamster,factory,ANIMAL,lobster,49,LA,O,error,FALSE,hamster,wc_event_error
2069363,17,retrieval_trial,4077.24500005133,swan,balloon,LOCATION,swimming pool,42,OL,A,CHECK,CHECK,swan,CHECK
2069363,18,retrieval_trial,5369.52000018209,slouth,drum,LOCATION,supermarket,39,OL,A,CHECK,CHECK,slouth,CHECK
2069363,19,retrieval_trial,9219.56999995746,paris,whistle,LOCATION,library,41,OL,A,CHECK,CHECK,paris,CHECK
2069363,20,retrieval_trial,6624.04999998398,whistle,dog,OBJECT,toothbrush,46,AO,L,error,FALSE,whistle,wc_event_error
2069363,21,retrieval_trial,8193.80500004627,watch,ostrich,LOCATION,basement,50,AL,O,CHECK,CHECK,watch,CHECK
2069363,22,retrieval_trial,2959.81499995105,phone,kitchen,OBJECT,phone,37,LO,A,1,FALSE,phone,1
2069363,23,retrieval_trial,9984.05700000003,NA,library,OBJECT,whistle,41,LO,A,error,FALSE,NA,miss
2069363,24,retrieval_trial,6086.59500000067,cinema,mouse,LOCATION,beach,53,AL,O,error,FALSE,cinema,wc_event_error
2069363,25,retrieval_trial,7439.2049999442,umbrella,lake,OBJECT,candle,38,LO,A,error,FALSE,umbrella,wc_event_error
2069363,26,retrieval_trial,4269.62499995716,ostrich,jacket,ANIMAL,duck,48,OA,L,error,FALSE,ostrich,wc_event_error
2069363,27,retrieval_trial,8915.07500014268,jacket,supermarket,OBJECT,drum,39,LO,A,error,FALSE,jacket,wc_event_error
2069363,28,retrieval_trial,2339.34499998577,peacock,jigsaw,ANIMAL,peacock,47,OA,L,1,FALSE,peacock,1
2069363,29,retrieval_trial,5652.72499993443,cinema,whale,LOCATION,vineyard,51,AL,O,error,FALSE,cinema,wc_event_error
2069363,30,retrieval_trial,7055.75500009581,ostrich,scissors,ANIMAL,octopus,43,OA,L,error,FALSE,ostrich,wc_event_error
2069363,31,retrieval_trial,3743.91999980435,aardverk,pen,ANIMAL,aardvark,45,OA,L,CHECK,CHECK,aardverk,CHECK
2069363,32,retrieval_trial,9984.04099999997,whale,toothbrush,ANIMAL,dog,46,OA,L,error,TRUE,whal,wc_event_error
2069363,33,retrieval_trial,600.709999911487,ocean,lobster,LOCATION,factory,49,AL,O,CHECK,CHECK,ocean,CHECK
2069363,34,retrieval_trial,4982.84499999136,lake,beaver,LOCATION,pharmacy,54,AL,O,error,FALSE,lake,wc_event_error
2069363,35,retrieval_trial,520.624999888241,shoe,cinema,OBJECT,shoe,40,LO,A,1,TRUE,shoes,1
2069363,36,retrieval_trial,3534.04000005685,keys,swimming pool,OBJECT,balloon,42,LO,A,error,FALSE,keys,wc_event_error
2069363,37,retrieval_trial,9984.00899999996,NA,binoculars,ANIMAL,hippo,44,OA,L,error,FALSE,NA,miss
2069363,38,retrieval_trial,5653.11499987729,pharmacy,crab,LOCATION,museum,52,AL,O,error,FALSE,pharmacy,wc_event_error
2075945,3,retrieval_trial,2051.68999987654,goat,pharmacy,ANIMAL,beaver,54,LA,O,error,FALSE,goat,wc_event_error
2075945,4,retrieval_trial,3672.1949998755,dentists,phone,LOCATION,kitchen,37,OL,A,error,TRUE,dentist,wc_event_error
2075945,5,retrieval_trial,2171.74999997951,elephant,vineyard,ANIMAL,whale,51,LA,O,error,FALSE,elephant,wc_event_error
2075945,6,retrieval_trial,4577.68999994732,skipping rope,dog,OBJECT,toothbrush,46,AO,L,error,FALSE,skipping rope,wc_event_error
2075945,7,retrieval_trial,2183.77999984659,library,whistle,LOCATION,library,41,OL,A,1,FALSE,library,1
2075945,8,retrieval_trial,4155.449999962,dog,factory,ANIMAL,lobster,49,LA,O,error,FALSE,dog,wc_event_error
2075945,9,retrieval_trial,5219.93499994278,camel,museum,ANIMAL,crab,52,LA,O,error,FALSE,camel,wc_event_error
2075945,10,retrieval_trial,3713.11999997124,cards,aardvark,OBJECT,pen,45,AO,L,CHECK,CHECK,cards,CHECK
2075945,11,retrieval_trial,3930.82499993034,goat,beach,ANIMAL,mouse,53,LA,O,error,FALSE,goat,wc_event_error
2075945,12,retrieval_trial,3975.38000019267,sofa,octopus,OBJECT,scissors,43,AO,L,CHECK,CHECK,sofa,CHECK
2075945,13,retrieval_trial,3917.36499988474,factory,shoe,LOCATION,cinema,40,OL,A,error,FALSE,factory,wc_event_error
2075945,14,retrieval_trial,4995.95999997109,whistle,hippo,OBJECT,binoculars,44,AO,L,error,FALSE,whistle,wc_event_error
2075945,15,retrieval_trial,6572.29000004008,fork,peacock,OBJECT,jigsaw,47,AO,L,CHECK,CHECK,fork,CHECK
2075945,16,retrieval_trial,3293.31499990076,garden,candle,LOCATION,lake,38,OL,A,error,FALSE,garden,wc_event_error
2075945,17,retrieval_trial,2719.52000004239,cow,basement,ANIMAL,ostrich,50,LA,O,error,FALSE,cow,wc_event_error
2075945,18,retrieval_trial,5481.46499996074,river,drum,LOCATION,supermarket,39,OL,A,error,FALSE,river,wc_event_error
2075945,19,retrieval_trial,4908.10000011697,house,balloon,LOCATION,swimming pool,42,OL,A,CHECK,CHECK,house,CHECK
2075945,20,retrieval_trial,4329.26500006579,cup,duck,OBJECT,jacket,48,AO,L,CHECK,CHECK,cup,CHECK
2075945,21,retrieval_trial,2355.25500006042,giraffe,jigsaw,ANIMAL,peacock,47,OA,L,error,FALSE,giraffe,wc_event_error
2075945,22,retrieval_trial,3959.44000012241,skipping rope,kitchen,OBJECT,phone,37,LO,A,error,FALSE,skipping rope,wc_event_error
2075945,23,retrieval_trial,3918.49000006914,cup,supermarket,OBJECT,drum,39,LO,A,CHECK,CHECK,cup,CHECK
2075945,24,retrieval_trial,3136.95499999449,octopus,scissors,ANIMAL,octopus,43,OA,L,1,FALSE,octopus,1
2075945,25,retrieval_trial,4238.37999999523,whale,binoculars,ANIMAL,hippo,44,OA,L,error,FALSE,whale,wc_event_error
2075945,26,retrieval_trial,4235.57000001892,park,ostrich,LOCATION,basement,50,AL,O,error,FALSE,park,wc_event_error
2075945,27,retrieval_trial,3710.95500001684,drum,cinema,OBJECT,shoe,40,LO,A,error,FALSE,drum,wc_event_error
2075945,28,retrieval_trial,4221.03500016965,hotel,crab,LOCATION,museum,52,AL,O,CHECK,CHECK,hotel,CHECK
2075945,29,retrieval_trial,4113.30000008456,cake,swimming pool,OBJECT,balloon,42,LO,A,error,FALSE,cake,wc_event_error
2075945,30,retrieval_trial,3011.88499992713,dice,lake,OBJECT,candle,38,LO,A,error,FALSE,dice,wc_event_error
2075945,31,retrieval_trial,3682.06499982625,post office,whale,LOCATION,vineyard,51,AL,O,error,FALSE,post office,wc_event_error
2075945,32,retrieval_trial,2679.87499991432,zoo,lobster,LOCATION,factory,49,AL,O,CHECK,CHECK,zoo,CHECK
2075945,33,retrieval_trial,1985.33999989741,whistle,library,OBJECT,whistle,41,LO,A,1,FALSE,whistle,1
2075945,34,retrieval_trial,2046.57000000589,dog,pen,ANIMAL,aardvark,45,OA,L,error,FALSE,dog,wc_event_error
2075945,35,retrieval_trial,4968.16000016406,camel,toothbrush,ANIMAL,dog,46,OA,L,error,FALSE,camel,wc_event_error
2075945,36,retrieval_trial,3723.56500010937,house,beaver,LOCATION,pharmacy,54,AL,O,CHECK,CHECK,house,CHECK
2075945,37,retrieval_trial,2243.49000002258,frog,jacket,ANIMAL,duck,48,OA,L,error,FALSE,frog,wc_event_error
2075945,38,retrieval_trial,4695.70000004023,zoo,mouse,LOCATION,beach,53,AL,O,CHECK,CHECK,zoo,CHECK
2069365,3,retrieval_trial,3856,elephant,supermarket,ANIMAL,squirrel,39,LA,O,error,FALSE,elephant,wc_event_error
2069365,4,retrieval_trial,2761,harbour,jigsaw,LOCATION,harbour,47,OL,A,1,FALSE,harbour,1
2069365,5,retrieval_trial,3557,television,mouse,OBJECT,television,53,AO,L,1,FALSE,television,1
2069365,6,retrieval_trial,3694,house,pen,LOCATION,nightclub,45,OL,A,CHECK,CHECK,house,CHECK
2069365,7,retrieval_trial,2135,car park,binoculars,LOCATION,car park,44,OL,A,1,TRUE,carpark,1
2069365,8,retrieval_trial,2932,feather,ostrich,OBJECT,flower,50,AO,L,CHECK,CHECK,feather,CHECK
2069365,9,retrieval_trial,3754,house,toothbrush,LOCATION,cave,46,OL,A,CHECK,CHECK,house,CHECK
2069365,10,retrieval_trial,6755,beach,jacket,LOCATION,windmill,48,OL,A,error,FALSE,beach,wc_event_error
2069365,11,retrieval_trial,5184,necklace,whale,OBJECT,necklace,51,AO,L,1,FALSE,necklace,1
2069365,12,retrieval_trial,5433,cat,kitchen,ANIMAL,horse,37,LA,O,error,FALSE,cat,wc_event_error
2069365,13,retrieval_trial,8209,paper,crab,OBJECT,calculator,52,AO,L,CHECK,CHECK,paper,CHECK
2069365,14,retrieval_trial,2753,rabbit,swimming pool,ANIMAL,rabbit,42,LA,O,1,FALSE,rabbit,1
2069365,15,retrieval_trial,3505,sunglasses,beaver,OBJECT,hammer,54,AO,L,CHECK,CHECK,sunglasses,CHECK
2069365,16,retrieval_trial,3288,elephant,cinema,ANIMAL,elephant,40,LA,O,1,FALSE,elephant,1
2069365,17,retrieval_trial,6599,cat,lake,ANIMAL,bee,38,LA,O,error,FALSE,cat,wc_event_error
2069365,18,retrieval_trial,5931,elephant,scissors,LOCATION,casino,43,OL,A,error,FALSE,elephant,be_cat_error
2069365,19,retrieval_trial,5310,paper,lobster,OBJECT,screwdriver,49,AO,L,CHECK,CHECK,paper,CHECK
2069365,20,retrieval_trial,4243,tiger,library,ANIMAL,penguin,41,LA,O,error,FALSE,tiger,wc_event_error
2069365,21,retrieval_trial,1676,lake,bee,LOCATION,lake,38,AL,O,1,FALSE,lake,1
2069365,22,retrieval_trial,3004,squirrel,nightclub,OBJECT,pen,45,LO,A,error,FALSE,squirrel,be_cat_error
2069365,23,retrieval_trial,2031,mouse,television,ANIMAL,mouse,53,OA,L,1,FALSE,mouse,1
2069365,24,retrieval_trial,2274,whale,necklace,ANIMAL,whale,51,OA,L,1,FALSE,whale,1
2069365,25,retrieval_trial,8642,dog,hammer,ANIMAL,beaver,54,OA,L,error,FALSE,dog,wc_event_error
2069365,26,retrieval_trial,3629,garage,penguin,LOCATION,library,41,AL,O,error,FALSE,garage,wc_event_error
2069365,27,retrieval_trial,5689,crab,calculator,ANIMAL,crab,52,OA,L,1,FALSE,crab,1
2069365,28,retrieval_trial,5217,jacket,windmill,OBJECT,jacket,48,LO,A,1,FALSE,jacket,1
2069365,29,retrieval_trial,7552,paper,cave,OBJECT,toothbrush,46,LO,A,CHECK,CHECK,paper,CHECK
2069365,30,retrieval_trial,5870,lobster,screwdriver,ANIMAL,lobster,49,OA,L,1,FALSE,lobster,1
2069365,31,retrieval_trial,5164,garage,squirrel,LOCATION,supermarket,39,AL,O,error,FALSE,garage,wc_event_error
2069365,32,retrieval_trial,3704,swimming pool,rabbit,LOCATION,swimming pool,42,AL,O,1,FALSE,swimming pool,1
2069365,33,retrieval_trial,6783,watch,car park,OBJECT,binoculars,44,LO,A,CHECK,CHECK,watch,CHECK
2069365,34,retrieval_trial,1650,kitchen,horse,LOCATION,kitchen,37,AL,O,1,FALSE,kitchen,1
2069365,35,retrieval_trial,5068,dog,flower,ANIMAL,ostrich,50,OA,L,error,FALSE,dog,wc_event_error
2069365,36,retrieval_trial,3051,pen,casino,OBJECT,scissors,43,LO,A,error,FALSE,pen,wc_event_error
2069365,37,retrieval_trial,3127,cinema,elephant,LOCATION,cinema,40,AL,O,1,FALSE,cinema,1
2069365,38,retrieval_trial,5434,game,harbour,OBJECT,jigsaw,47,LO,A,CHECK,CHECK,game,CHECK
2069522,3,retrieval_trial,1450,horse,kitchen,ANIMAL,horse,37,LA,O,1,FALSE,horse,1
2069522,4,retrieval_trial,3016,elephant,cinema,ANIMAL,elephant,40,LA,O,1,FALSE,elephant,1
2069522,5,retrieval_trial,2081,peacock,jigsaw,LOCATION,harbour,47,OL,A,error,FALSE,peacock,we_cat_error
2069522,6,retrieval_trial,5097,cow,library,ANIMAL,penguin,41,LA,O,error,FALSE,cow,wc_event_error
2069522,7,retrieval_trial,9984.60000000001,NA,pen,LOCATION,nightclub,45,OL,A,error,FALSE,NA,miss
2069522,8,retrieval_trial,9984.66,chalk,lobster,OBJECT,screwdriver,49,AO,L,CHECK,CHECK,chalk,CHECK
2069522,9,retrieval_trial,7076,pig,lake,ANIMAL,bee,38,LA,O,error,FALSE,pig,wc_event_error
2069522,10,retrieval_trial,2574,octopus,scissors,LOCATION,casino,43,OL,A,error,FALSE,octopus,we_cat_error
2069522,11,retrieval_trial,6836,ball,beaver,OBJECT,hammer,54,AO,L,error,FALSE,ball,wc_event_error
2069522,12,retrieval_trial,9385,pen,ostrich,OBJECT,flower,50,AO,L,error,FALSE,pen,wc_event_error
2069522,13,retrieval_trial,9983.98000000001,vineyard,whale,OBJECT,necklace,51,AO,L,error,FALSE,vineyard,we_cat_error
2069522,14,retrieval_trial,4419,beach,binoculars,LOCATION,car park,44,OL,A,error,FALSE,beach,wc_event_error
2069522,15,retrieval_trial,5486,squirrel,supermarket,ANIMAL,squirrel,39,LA,O,1,FALSE,squirrel,1
2069522,16,retrieval_trial,2653,rabbit,swimming pool,ANIMAL,rabbit,42,LA,O,1,FALSE,rabbit,1
2069522,17,retrieval_trial,7489,ticket,mouse,OBJECT,television,53,AO,L,CHECK,CHECK,ticket,CHECK
2069522,18,retrieval_trial,2801,cave,toothbrush,LOCATION,cave,46,OL,A,1,FALSE,cave,1
2069522,19,retrieval_trial,4620,downtown,jacket,LOCATION,windmill,48,OL,A,CHECK,CHECK,downtown,CHECK
2069522,20,retrieval_trial,7028,glasses,crab,OBJECT,calculator,52,AO,L,error,FALSE,glasses,wc_event_error
2069522,21,retrieval_trial,9074,pig,flower,ANIMAL,ostrich,50,OA,L,error,FALSE,pig,wc_event_error
2069522,22,retrieval_trial,1675,octopus,casino,OBJECT,scissors,43,LO,A,error,FALSE,octopus,we_cat_error
2069522,23,retrieval_trial,2013,toothbrush,cave,OBJECT,toothbrush,46,LO,A,1,FALSE,toothbrush,1
2069522,24,retrieval_trial,7637,pig,hammer,ANIMAL,beaver,54,OA,L,error,FALSE,pig,wc_event_error
2069522,25,retrieval_trial,6866,cinema,elephant,LOCATION,cinema,40,AL,O,1,FALSE,cinema,1
2069522,26,retrieval_trial,3007,beach,penguin,LOCATION,library,41,AL,O,error,FALSE,beach,wc_event_error
2069522,27,retrieval_trial,9984.64000000001,NA,nightclub,OBJECT,pen,45,LO,A,error,FALSE,NA,miss
2069522,28,retrieval_trial,2530,grocery store,squirrel,LOCATION,supermarket,39,AL,O,CHECK,CHECK,grocery store,CHECK
2069522,29,retrieval_trial,3908,knife,windmill,OBJECT,jacket,48,LO,A,CHECK,CHECK,knife,CHECK
2069522,30,retrieval_trial,7592,pig,necklace,ANIMAL,whale,51,OA,L,error,FALSE,pig,wc_event_error
2069522,31,retrieval_trial,2959,crab,calculator,ANIMAL,crab,52,OA,L,1,FALSE,crab,1
2069522,32,retrieval_trial,2316,kitchen,horse,LOCATION,kitchen,37,AL,O,1,FALSE,kitchen,1
2069522,33,retrieval_trial,2275,binoculars,car park,OBJECT,binoculars,44,LO,A,1,FALSE,binoculars,1
2069522,34,retrieval_trial,8415,sheep,television,ANIMAL,mouse,53,OA,L,error,FALSE,sheep,wc_event_error
2069522,35,retrieval_trial,3423,jigsaw,harbour,OBJECT,jigsaw,47,LO,A,1,FALSE,jigsaw,1
2069522,36,retrieval_trial,7285,restaraunt,bee,LOCATION,lake,38,AL,O,CHECK,CHECK,restaraunt,CHECK
2069522,37,retrieval_trial,6107,pig,screwdriver,ANIMAL,lobster,49,OA,L,error,FALSE,pig,wc_event_error
2069522,38,retrieval_trial,7912,beach,rabbit,LOCATION,swimming pool,42,AL,O,error,FALSE,beach,wc_event_error
2075946,3,retrieval_trial,4823.28999997117,giraffe,swimming pool,ANIMAL,rabbit,42,LA,O,error,FALSE,giraffe,wc_event_error
2075946,4,retrieval_trial,4418.63999998895,meerkat,scissors,LOCATION,casino,43,OL,A,error,FALSE,meerkat,be_cat_error
2075946,5,retrieval_trial,3489.25000004238,flower,ostrich,OBJECT,flower,50,AO,L,1,FALSE,flower,1
2075946,6,retrieval_trial,9989.25099999999,torch,beaver,OBJECT,hammer,54,AO,L,error,FALSE,torch,wc_event_error
2075946,7,retrieval_trial,4857.83499997342,map,crab,OBJECT,calculator,52,AO,L,error,FALSE,map,wc_event_error
2075946,8,retrieval_trial,6448.22500000009,hat,whale,OBJECT,necklace,51,AO,L,error,FALSE,hat,wc_event_error
2075946,9,retrieval_trial,7506.45499996608,basement,jacket,LOCATION,windmill,48,OL,A,error,FALSE,basement,wc_event_error
2075946,10,retrieval_trial,5884.94999997783,garden,toothbrush,LOCATION,cave,46,OL,A,error,FALSE,garden,wc_event_error
2075946,11,retrieval_trial,5598.06499996921,duck,kitchen,ANIMAL,horse,37,LA,O,error,FALSE,duck,wc_event_error
2075946,12,retrieval_trial,4580.27500001481,squirrel,supermarket,ANIMAL,squirrel,39,LA,O,1,FALSE,squirrel,1
2075946,13,retrieval_trial,2768.27499998035,elephant,cinema,ANIMAL,elephant,40,LA,O,1,FALSE,elephant,1
2075946,14,retrieval_trial,5509.62000002619,balloon,mouse,OBJECT,television,53,AO,L,error,FALSE,balloon,wc_event_error
2075946,15,retrieval_trial,4018.78499996383,flamingo,pen,LOCATION,nightclub,45,OL,A,error,FALSE,flamingo,be_cat_error
2075946,16,retrieval_trial,5108.85000001872,cat,lake,ANIMAL,bee,38,LA,O,error,FALSE,cat,wc_event_error
2075946,17,retrieval_trial,3986.16999998922,lake,jigsaw,LOCATION,harbour,47,OL,A,error,FALSE,lake,wc_event_error
2075946,18,retrieval_trial,6802.77999996906,watch,lobster,OBJECT,screwdriver,49,AO,L,CHECK,CHECK,watch,CHECK
2075946,19,retrieval_trial,6119.2550000269,horse,library,ANIMAL,penguin,41,LA,O,error,FALSE,horse,wc_event_error
2075946,20,retrieval_trial,2419.40000001341,hippo,binoculars,LOCATION,car park,44,OL,A,error,FALSE,hippo,we_cat_error
2075946,21,retrieval_trial,4614.75999996765,waterfall,squirrel,LOCATION,supermarket,39,AL,O,error,FALSE,waterfall,wc_event_error
2075946,22,retrieval_trial,4835.72500001173,badger,nightclub,OBJECT,pen,45,LO,A,error,FALSE,badger,be_cat_error
2075946,23,retrieval_trial,3144.25000001211,scissors,casino,OBJECT,scissors,43,LO,A,1,FALSE,scissors,1
2075946,24,retrieval_trial,4347.48499997659,calculator,penguin,LOCATION,library,41,AL,O,error,FALSE,calculator,be_cat_error
2075946,25,retrieval_trial,8490.90999999316,cat,screwdriver,ANIMAL,lobster,49,OA,L,error,FALSE,cat,wc_event_error
2075946,26,retrieval_trial,4710.41500003776,mouse,hammer,ANIMAL,beaver,54,OA,L,error,FALSE,mouse,wc_event_error
2075946,27,retrieval_trial,3598.53999997722,toothbrush,cave,OBJECT,toothbrush,46,LO,A,1,FALSE,toothbrush,1
2075946,28,retrieval_trial,6361.59500002395,lake,bee,LOCATION,lake,38,AL,O,1,FALSE,lake,1
2075946,29,retrieval_trial,2978.79500000272,mug,windmill,OBJECT,jacket,48,LO,A,error,FALSE,mug,wc_event_error
2075946,30,retrieval_trial,2983.58000000007,squirrel,television,ANIMAL,mouse,53,OA,L,error,FALSE,squirrel,wc_event_error
2075946,31,retrieval_trial,2785.85499996552,whale,necklace,ANIMAL,whale,51,OA,L,1,FALSE,whale,1
2075946,32,retrieval_trial,2511.34500000626,badger,calculator,ANIMAL,crab,52,OA,L,error,FALSE,badger,wc_event_error
2075946,33,retrieval_trial,9982.98900000006,elephant,flower,ANIMAL,ostrich,50,OA,L,error,TRUE,elephan,wc_event_error
2075946,34,retrieval_trial,3361.40500003239,cinema,elephant,LOCATION,cinema,40,AL,O,1,FALSE,cinema,1
2075946,35,retrieval_trial,2992.11999995168,hippo,car park,OBJECT,binoculars,44,LO,A,error,FALSE,hippo,we_cat_error
2075946,36,retrieval_trial,9978.08500000008,theatre,horse,LOCATION,kitchen,37,AL,O,error,TRUE,theatr,wc_event_error
2075946,37,retrieval_trial,6423.25500003062,basement,rabbit,LOCATION,swimming pool,42,AL,O,error,TRUE,baseent,wc_event_error
2075946,38,retrieval_trial,5949.41999996081,ostruch,harbour,OBJECT,jigsaw,47,LO,A,CHECK,CHECK,ostruch,CHECK
2069372,3,retrieval_trial,5646.25499991234,book,giraffe,OBJECT,clock,6,AO,L,error,FALSE,book,wc_event_error
2069372,4,retrieval_trial,6500.8899999084,cinema,trophy,LOCATION,university,18,OL,A,error,FALSE,cinema,wc_event_error
2069372,5,retrieval_trial,3954.33999993838,cafe,ring,LOCATION,living room,15,OL,A,error,FALSE,cafe,wc_event_error
2069372,6,retrieval_trial,1870.9899999667,kangaroo,treehouse,ANIMAL,kangaroo,7,LA,O,1,FALSE,kangaroo,1
2069372,7,retrieval_trial,5729.88500003703,vase,spider,OBJECT,carrot,5,AO,L,error,FALSE,vase,wc_event_error
2069372,8,retrieval_trial,8114.94999995921,owl,glasses,LOCATION,railway station,14,OL,A,CHECK,CHECK,owl,CHECK
2069372,9,retrieval_trial,3428.65499993786,camel,waterfall,ANIMAL,zebra,8,LA,O,error,FALSE,camel,wc_event_error
2069372,10,retrieval_trial,6541.87499999534,bird,lighthouse,ANIMAL,bear,12,LA,O,CHECK,CHECK,bird,CHECK
2069372,11,retrieval_trial,4103.11999998521,jumprope,sheep,OBJECT,skipping rope,3,AO,L,CHECK,CHECK,jumprope,CHECK
2069372,12,retrieval_trial,2179.50500000734,ring,fish,OBJECT,dice,1,AO,L,error,FALSE,ring,wc_event_error
2069372,13,retrieval_trial,1882.68499996047,mouse,statue,LOCATION,cruise ship,16,OL,A,error,FALSE,mouse,be_cat_error
2069372,14,retrieval_trial,6723.17999997176,knitting,cow,OBJECT,backpack,4,AO,L,CHECK,CHECK,knitting,CHECK
2069372,15,retrieval_trial,3791.5450000437,lobster,bank,ANIMAL,butterfly,9,LA,O,error,FALSE,lobster,wc_event_error
2069372,16,retrieval_trial,4121.48500001058,goat,garden,ANIMAL,goat,11,LA,O,1,FALSE,goat,1
2069372,17,retrieval_trial,3642.42000004742,woods,chainsaw,LOCATION,gym,17,OL,A,CHECK,CHECK,woods,CHECK
2069372,18,retrieval_trial,2235.11999996845,flamingo,hairdressers,ANIMAL,flamingo,10,LA,O,1,FALSE,flamingo,1
2069372,19,retrieval_trial,5407.02499996405,sewingkit,snake,OBJECT,kite,2,AO,L,CHECK,CHECK,sewingkit,CHECK
2069372,20,retrieval_trial,3874.23499999568,beach,ball,LOCATION,forest,13,OL,A,error,FALSE,beach,wc_event_error
2069372,21,retrieval_trial,3043.74500003178,garden,goat,LOCATION,garden,11,AL,O,1,FALSE,garden,1
2069372,22,retrieval_trial,3396.76000003237,ant,clock,ANIMAL,giraffe,6,OA,L,error,FALSE,ant,wc_event_error
2069372,23,retrieval_trial,1719.80000007898,spider,carrot,ANIMAL,spider,5,OA,L,1,FALSE,spider,1
2069372,24,retrieval_trial,4778.1149999937,camera,living room,OBJECT,ring,15,LO,A,error,FALSE,camera,wc_event_error
2069372,25,retrieval_trial,1385.07999991998,sheep,skipping rope,ANIMAL,sheep,3,OA,L,1,FALSE,sheep,1
2069372,26,retrieval_trial,2396.9250000082,keys,railway station,OBJECT,glasses,14,LO,A,error,FALSE,keys,wc_event_error
2069372,27,retrieval_trial,2274.19999998529,statue,cruise ship,OBJECT,statue,16,LO,A,1,FALSE,statue,1
2069372,28,retrieval_trial,3342.59500005282,treehouse,kangaroo,LOCATION,treehouse,7,AL,O,1,FALSE,treehouse,1
2069372,29,retrieval_trial,2416.54000000563,trophy,university,OBJECT,trophy,18,LO,A,1,FALSE,trophy,1
2069372,30,retrieval_trial,2183.14500001725,hairdressers,flamingo,LOCATION,hairdressers,10,AL,O,1,FALSE,hairdressers,1
2069372,31,retrieval_trial,1699.76999994833,fish,dice,ANIMAL,fish,1,OA,L,1,FALSE,fish,1
2069372,32,retrieval_trial,5075.55499998853,bedroom,butterfly,LOCATION,bank,9,AL,O,error,FALSE,bedroom,wc_event_error
2069372,33,retrieval_trial,1552.54000006244,campsite,bear,LOCATION,lighthouse,12,AL,O,error,FALSE,campsite,wc_event_error
2069372,34,retrieval_trial,1695.89999993332,cow,backpack,ANIMAL,cow,4,OA,L,1,FALSE,cow,1
2069372,35,retrieval_trial,4255.93500002287,shoe,gym,OBJECT,chainsaw,17,LO,A,error,TRUE,shoes,wc_event_error
2069372,36,retrieval_trial,1514.73499997519,waterfall,zebra,LOCATION,waterfall,8,AL,O,1,FALSE,waterfall,1
2069372,37,retrieval_trial,1453.31499993335,snake,kite,ANIMAL,snake,2,OA,L,1,FALSE,snake,1
2069372,38,retrieval_trial,5056.21000006795,keys,forest,OBJECT,ball,13,LO,A,error,FALSE,keys,wc_event_error
2069382,3,retrieval_trial,5424.95999997482,wood,sheep,OBJECT,skipping rope,3,AO,L,CHECK,CHECK,wood,CHECK
2069382,4,retrieval_trial,7792.75999998208,steel,fish,OBJECT,dice,1,AO,L,CHECK,CHECK,steel,CHECK
2069382,5,retrieval_trial,6609.45999994874,map,glasses,LOCATION,railway station,14,OL,A,error,FALSE,map,be_cat_error
2069382,6,retrieval_trial,9983.68400000001,bottle,snake,OBJECT,kite,2,AO,L,error,TRUE,bott,wc_event_error
2069382,7,retrieval_trial,6998.44500003383,park,ball,LOCATION,forest,13,OL,A,error,FALSE,park,wc_event_error
2069382,8,retrieval_trial,7837.4199999962,forest,chainsaw,LOCATION,gym,17,OL,A,error,FALSE,forest,wc_event_error
2069382,9,retrieval_trial,5890.69000002928,reindeer,treehouse,ANIMAL,kangaroo,7,LA,O,error,FALSE,reindeer,wc_event_error
2069382,10,retrieval_trial,4593.33999990486,snail,garden,ANIMAL,goat,11,LA,O,CHECK,CHECK,snail,CHECK
2069382,11,retrieval_trial,9983.36399999994,offivc,trophy,LOCATION,university,18,OL,A,CHECK,CHECK,offivc,CHECK
2069382,12,retrieval_trial,4675.22499989718,lion,hairdressers,ANIMAL,flamingo,10,LA,O,error,FALSE,lion,wc_event_error
2069382,13,retrieval_trial,4208.39500008151,dolphin,waterfall,ANIMAL,zebra,8,LA,O,error,FALSE,dolphin,wc_event_error
2069382,14,retrieval_trial,5925.19499990158,table,spider,OBJECT,carrot,5,AO,L,CHECK,CHECK,table,CHECK
2069382,15,retrieval_trial,4042.22499998286,chair,giraffe,OBJECT,clock,6,AO,L,CHECK,CHECK,chair,CHECK
2069382,16,retrieval_trial,4143.5749999946,museum,statue,LOCATION,cruise ship,16,OL,A,error,FALSE,museum,wc_event_error
2069382,17,retrieval_trial,7054.57000003662,eagle,lighthouse,ANIMAL,bear,12,LA,O,CHECK,CHECK,eagle,CHECK
2069382,18,retrieval_trial,6221.92500007804,church,ring,LOCATION,living room,15,OL,A,error,FALSE,church,wc_event_error
2069382,19,retrieval_trial,5839.55000003334,cat,bank,ANIMAL,butterfly,9,LA,O,error,FALSE,cat,wc_event_error
2069382,20,retrieval_trial,9983.72600000002,p,cow,OBJECT,backpack,4,AO,L,CHECK,CHECK,p,CHECK
2069382,21,retrieval_trial,3500.63499994576,bus stop,butterfly,LOCATION,bank,9,AL,O,error,FALSE,bus stop,wc_event_error
2069382,22,retrieval_trial,6334.39999993425,butterfly,kite,ANIMAL,snake,2,OA,L,error,FALSE,butterfly,wc_event_error
2069382,23,retrieval_trial,6902.71499997471,church,flamingo,LOCATION,hairdressers,10,AL,O,error,FALSE,church,wc_event_error
2069382,24,retrieval_trial,9983.73600000003,NA,university,OBJECT,trophy,18,LO,A,error,FALSE,NA,miss
2069382,25,retrieval_trial,3215.24999989197,kite,living room,OBJECT,ring,15,LO,A,error,FALSE,kite,wc_event_error
2069382,26,retrieval_trial,4410.07500002161,kangaroo,skipping rope,ANIMAL,sheep,3,OA,L,error,FALSE,kangaroo,wc_event_error
2069382,27,retrieval_trial,3418.53499994613,kangaroo,clock,ANIMAL,giraffe,6,OA,L,error,FALSE,kangaroo,wc_event_error
2069382,28,retrieval_trial,4949.329999974,restaurant,bear,LOCATION,lighthouse,12,AL,O,error,FALSE,restaurant,wc_event_error
2069382,29,retrieval_trial,9983.72400000005,cop,railway station,OBJECT,glasses,14,LO,A,CHECK,CHECK,cop,CHECK
2069382,30,retrieval_trial,2501.41999998596,coin,gym,OBJECT,chainsaw,17,LO,A,CHECK,CHECK,coin,CHECK
2069382,31,retrieval_trial,8476.12499992829,bottle,forest,OBJECT,ball,13,LO,A,error,FALSE,bottle,wc_event_error
2069382,32,retrieval_trial,7278.11000007205,waterfall,zebra,LOCATION,waterfall,8,AL,O,1,FALSE,waterfall,1
2069382,33,retrieval_trial,5888.07999994606,spoon,cruise ship,OBJECT,statue,16,LO,A,error,FALSE,spoon,wc_event_error
2069382,34,retrieval_trial,3436.3950000843,rabbit,carrot,ANIMAL,spider,5,OA,L,error,FALSE,rabbit,wc_event_error
2069382,35,retrieval_trial,6896.13500004634,dog,backpack,ANIMAL,cow,4,OA,L,error,FALSE,dog,wc_event_error
2069382,36,retrieval_trial,5623.84999997448,snake,dice,ANIMAL,fish,1,OA,L,error,FALSE,snake,wc_event_error
2069382,37,retrieval_trial,7106.6400000127,living room,goat,LOCATION,garden,11,AL,O,error,FALSE,living room,wc_event_error
2069382,38,retrieval_trial,5890.88500000071,forest,kangaroo,LOCATION,treehouse,7,AL,O,error,FALSE,forest,wc_event_error
2075952,3,retrieval_trial,5093.72499999881,mug,spider,OBJECT,carrot,5,AO,L,error,FALSE,mug,wc_event_error
2075952,4,retrieval_trial,6121.36000000464,kangaroo,treehouse,ANIMAL,kangaroo,7,LA,O,1,FALSE,kangaroo,1
2075952,5,retrieval_trial,5280.65499999502,mug,sheep,OBJECT,skipping rope,3,AO,L,error,FALSE,mug,wc_event_error
2075952,6,retrieval_trial,7763.95500000217,pig,glasses,LOCATION,railway station,14,OL,A,error,FALSE,pig,we_cat_error
2075952,7,retrieval_trial,7538.71999999683,glasses,fish,OBJECT,dice,1,AO,L,error,FALSE,glasses,wc_event_error
2075952,8,retrieval_trial,6882.22499999392,tortoise,garden,ANIMAL,goat,11,LA,O,error,FALSE,tortoise,wc_event_error
2075952,9,retrieval_trial,4314.46000000869,lounge,ring,LOCATION,living room,15,OL,A,CHECK,CHECK,lounge,CHECK
2075952,10,retrieval_trial,8689.41500000074,garage,ball,LOCATION,forest,13,OL,A,error,FALSE,garage,wc_event_error
2075952,11,retrieval_trial,2358.5599999933,university,trophy,LOCATION,university,18,OL,A,1,FALSE,university,1
2075952,12,retrieval_trial,3344.64499999012,zebra,waterfall,ANIMAL,zebra,8,LA,O,1,FALSE,zebra,1
2075952,13,retrieval_trial,7294.04499998782,keys,giraffe,OBJECT,clock,6,AO,L,error,FALSE,keys,wc_event_error
2075952,14,retrieval_trial,5854.4200000033,pig,lighthouse,ANIMAL,bear,12,LA,O,error,FALSE,pig,wc_event_error
2075952,15,retrieval_trial,7181.89000000712,frog,bank,ANIMAL,butterfly,9,LA,O,error,FALSE,frog,wc_event_error
2075952,16,retrieval_trial,6626.62999999884,hat,cow,OBJECT,backpack,4,AO,L,error,FALSE,hat,wc_event_error
2075952,17,retrieval_trial,7299.70999999205,camel,hairdressers,ANIMAL,flamingo,10,LA,O,error,FALSE,camel,wc_event_error
2075952,18,retrieval_trial,4171.62500000268,park,statue,LOCATION,cruise ship,16,OL,A,error,FALSE,park,wc_event_error
2075952,19,retrieval_trial,2872.21500001033,gym,chainsaw,LOCATION,gym,17,OL,A,1,FALSE,gym,1
2075952,20,retrieval_trial,8034.40499999851,hat,snake,OBJECT,kite,2,AO,L,error,FALSE,hat,wc_event_error
2075952,21,retrieval_trial,4130.19000001077,trophy,university,OBJECT,trophy,18,LO,A,1,FALSE,trophy,1
2075952,22,retrieval_trial,3712.2049999889,giraffe,clock,ANIMAL,giraffe,6,OA,L,1,FALSE,giraffe,1
2075952,23,retrieval_trial,1338.39000000444,elephant,backpack,ANIMAL,cow,4,OA,L,error,FALSE,elephant,wc_event_error
2075952,24,retrieval_trial,4113.29999999725,kitchen,flamingo,LOCATION,hairdressers,10,AL,O,error,FALSE,kitchen,wc_event_error
2075952,25,retrieval_trial,1659.00500000862,shark,kite,ANIMAL,snake,2,OA,L,error,FALSE,shark,wc_event_error
2075952,26,retrieval_trial,9985.62700000009,k,bear,LOCATION,lighthouse,12,AL,O,CHECK,CHECK,k,CHECK
2075952,27,retrieval_trial,6327.77999999234,bank,kangaroo,LOCATION,treehouse,7,AL,O,error,FALSE,bank,wc_event_error
2075952,28,retrieval_trial,3654.96500000893,fish,dice,ANIMAL,fish,1,OA,L,1,FALSE,fish,1
2075952,29,retrieval_trial,2718.71000000089,ring,living room,OBJECT,ring,15,LO,A,1,FALSE,ring,1
2075952,30,retrieval_trial,2389.45000000228,chainsaw,gym,OBJECT,chainsaw,17,LO,A,1,FALSE,chainsaw,1
2075952,31,retrieval_trial,7406.69500001241,bank,butterfly,LOCATION,bank,9,AL,O,1,FALSE,bank,1
2075952,32,retrieval_trial,3335.92500000657,garden,goat,LOCATION,garden,11,AL,O,1,FALSE,garden,1
2075952,33,retrieval_trial,2069.46500000777,sheep,skipping rope,ANIMAL,sheep,3,OA,L,1,FALSE,sheep,1
2075952,34,retrieval_trial,2859.4049999956,waterfall,zebra,LOCATION,waterfall,8,AL,O,1,FALSE,waterfall,1
2075952,35,retrieval_trial,4715.59499998693,mouse,carrot,ANIMAL,spider,5,OA,L,error,FALSE,mouse,wc_event_error
2075952,36,retrieval_trial,1889.89500000002,ball,forest,OBJECT,ball,13,LO,A,1,FALSE,ball,1
2075952,37,retrieval_trial,2173.535000009,statue,cruise ship,OBJECT,statue,16,LO,A,1,FALSE,statue,1
2075952,38,retrieval_trial,2192.08499998786,glasses,railway station,OBJECT,glasses,14,LO,A,1,FALSE,glasses,1
2069364,3,retrieval_trial,2993.59000008553,torch,zebra,OBJECT,ice cream,8,AO,L,error,FALSE,torch,wc_event_error
2069364,4,retrieval_trial,5627.72500002757,box,university,ANIMAL,wolf,18,LA,O,error,FALSE,box,be_cat_error
2069364,5,retrieval_trial,5257.35999993049,park,skipping rope,LOCATION,church,3,OL,A,error,FALSE,park,wc_event_error
2069364,6,retrieval_trial,4022.36000006087,lion,forest,ANIMAL,chicken,13,LA,O,error,FALSE,lion,wc_event_error
2069364,7,retrieval_trial,6009.42000001669,cat,living room,ANIMAL,monkey,15,LA,O,error,FALSE,cat,wc_event_error
2069364,8,retrieval_trial,3344.4999998901,spade,butterfly,OBJECT,spoon,9,AO,L,CHECK,CHECK,spade,CHECK
2069364,9,retrieval_trial,4470.94999998808,box,kangaroo,OBJECT,book,7,AO,L,error,FALSE,box,wc_event_error
2069364,10,retrieval_trial,4141.75999979489,dog,gym,ANIMAL,badger,17,LA,O,error,FALSE,dog,wc_event_error
2069364,11,retrieval_trial,2766.60500001162,school,backpack,LOCATION,post office,4,OL,A,CHECK,CHECK,school,CHECK
2069364,12,retrieval_trial,3903.47500005737,reindeer,cruise ship,ANIMAL,hamster,16,LA,O,error,FALSE,reindeer,wc_event_error
2069364,13,retrieval_trial,3453.77999986522,school,clock,LOCATION,mountain,6,OL,A,CHECK,CHECK,school,CHECK
2069364,14,retrieval_trial,7108.74000005424,gym,dice,LOCATION,theatre,1,OL,A,error,FALSE,gym,wc_event_error
2069364,15,retrieval_trial,9981.42300000001,NA,goat,OBJECT,camera,11,AO,L,error,FALSE,NA,miss
2069364,16,retrieval_trial,5855.91499996372,pig,railway station,ANIMAL,pig,14,LA,O,1,FALSE,pig,1
2069364,17,retrieval_trial,5148.53999996558,beach,kite,LOCATION,classroom,2,OL,A,error,FALSE,beach,wc_event_error
2069364,18,retrieval_trial,6059.06499992125,knife,flamingo,OBJECT,box,10,AO,L,CHECK,CHECK,knife,CHECK
2069364,19,retrieval_trial,2916.19500005618,sunglasses,bear,OBJECT,mug,12,AO,L,CHECK,CHECK,sunglasses,CHECK
2069364,20,retrieval_trial,3646.15000016056,gym,carrot,LOCATION,circus,5,OL,A,error,FALSE,gym,wc_event_error
2069364,21,retrieval_trial,2141.425000038,reindeer,mountain,OBJECT,clock,6,LO,A,error,FALSE,reindeer,be_cat_error
2069364,22,retrieval_trial,5303.04499994963,box,theatre,OBJECT,dice,1,LO,A,error,FALSE,box,wc_event_error
2069364,23,retrieval_trial,2698.61999992281,school,monkey,LOCATION,living room,15,AL,O,CHECK,CHECK,school,CHECK
2069364,24,retrieval_trial,3381.23499997891,box,classroom,OBJECT,kite,2,LO,A,error,FALSE,box,wc_event_error
2069364,25,retrieval_trial,3267.92500005104,monkey,mug,ANIMAL,bear,12,OA,L,error,FALSE,monkey,wc_event_error
2069364,26,retrieval_trial,2532.48499985784,hospital,chicken,LOCATION,forest,13,AL,O,error,FALSE,hospital,wc_event_error
2069364,27,retrieval_trial,3497.56000004709,frog,spoon,ANIMAL,butterfly,9,OA,L,error,FALSE,frog,wc_event_error
2069364,28,retrieval_trial,3746.93999998271,box,church,OBJECT,skipping rope,3,LO,A,error,FALSE,box,wc_event_error
2069364,29,retrieval_trial,3224.0349999629,frog,box,ANIMAL,flamingo,10,OA,L,error,TRUE,fro,wc_event_error
2069364,30,retrieval_trial,5067.07999994978,gym,wolf,LOCATION,university,18,AL,O,error,FALSE,gym,wc_event_error
2069364,31,retrieval_trial,2468.34000013769,school,hamster,LOCATION,cruise ship,16,AL,O,CHECK,CHECK,school,CHECK
2069364,32,retrieval_trial,2781.77499980666,spoon,circus,OBJECT,carrot,5,LO,A,error,FALSE,spoon,wc_event_error
2069364,33,retrieval_trial,9981.20299999998,NA,post office,OBJECT,backpack,4,LO,A,error,FALSE,NA,miss
2069364,34,retrieval_trial,2472.41499996744,forest,badger,LOCATION,gym,17,AL,O,error,FALSE,forest,wc_event_error
2069364,35,retrieval_trial,3658.0149999354,platypus,ice cream,ANIMAL,zebra,8,OA,L,error,FALSE,platypus,wc_event_error
2069364,36,retrieval_trial,2919.65000005439,platypus,book,ANIMAL,kangaroo,7,OA,L,error,FALSE,platypus,wc_event_error
2069364,37,retrieval_trial,2064.75999997929,school,pig,LOCATION,railway station,14,AL,O,CHECK,CHECK,school,CHECK
2069364,38,retrieval_trial,3756.29499997012,fox,camera,ANIMAL,goat,11,OA,L,error,FALSE,fox,wc_event_error
2070024,3,retrieval_trial,9976.65300000005,NA,dice,LOCATION,theatre,1,OL,A,error,FALSE,NA,miss
2070024,4,retrieval_trial,2868.8700000057,tortoise,living room,ANIMAL,monkey,15,LA,O,error,FALSE,tortoise,wc_event_error
2070024,5,retrieval_trial,9976.56199999998,tre,kangaroo,OBJECT,book,7,AO,L,CHECK,CHECK,tre,CHECK
2070024,6,retrieval_trial,4432.55999998655,cup,bear,OBJECT,mug,12,AO,L,CHECK,CHECK,cup,CHECK
2070024,7,retrieval_trial,9976.467,NA,goat,OBJECT,camera,11,AO,L,error,FALSE,NA,miss
2070024,8,retrieval_trial,9976.64299999998,NA,gym,ANIMAL,badger,17,LA,O,error,FALSE,NA,miss
2070024,9,retrieval_trial,5479.44999998435,binoculars,zebra,OBJECT,ice cream,8,AO,L,error,FALSE,binoculars,wc_event_error
2070024,10,retrieval_trial,7751.96999998298,NA,clock,LOCATION,mountain,6,OL,A,error,FALSE,NA,miss
2070024,11,retrieval_trial,5185.78499997966,classroom,kite,LOCATION,classroom,2,OL,A,1,FALSE,classroom,1
2070024,12,retrieval_trial,6898.47500005271,meerkat,railway station,ANIMAL,pig,14,LA,O,error,FALSE,meerkat,wc_event_error
2070024,13,retrieval_trial,5801.93000007421,NA,flamingo,OBJECT,box,10,AO,L,error,FALSE,NA,miss
2070024,14,retrieval_trial,2792.32999996748,binoculars,butterfly,OBJECT,spoon,9,AO,L,error,FALSE,binoculars,wc_event_error
2070024,15,retrieval_trial,8221.41999995802,NA,backpack,LOCATION,post office,4,OL,A,error,FALSE,NA,miss
2070024,16,retrieval_trial,5038.05999993347,chicken,forest,ANIMAL,chicken,13,LA,O,1,FALSE,chicken,1
2070024,17,retrieval_trial,3492.02500004321,circus,carrot,LOCATION,circus,5,OL,A,1,FALSE,circus,1
2070024,18,retrieval_trial,3940.64499996603,wolf,university,ANIMAL,wolf,18,LA,O,1,FALSE,wolf,1
2070024,19,retrieval_trial,4769.44000006188,hamster,cruise ship,ANIMAL,hamster,16,LA,O,1,FALSE,hamster,1
2070024,20,retrieval_trial,9976.62199999997,NA,skipping rope,LOCATION,church,3,OL,A,error,FALSE,NA,miss
2070024,21,retrieval_trial,1796.56500008423,bear,mug,ANIMAL,bear,12,OA,L,1,FALSE,bear,1
2070024,22,retrieval_trial,2197.93500006199,snake,classroom,OBJECT,kite,2,LO,A,error,FALSE,snake,we_cat_error
2070024,23,retrieval_trial,4623.38000000454,train station,pig,LOCATION,railway station,14,AL,O,CHECK,CHECK,train station,CHECK
2070024,24,retrieval_trial,9976.64899999998,NA,mountain,OBJECT,clock,6,LO,A,error,FALSE,NA,miss
2070024,25,retrieval_trial,2544.9400000507,zebra,ice cream,ANIMAL,zebra,8,OA,L,1,FALSE,zebra,1
2070024,26,retrieval_trial,8576.3600000646,tortoise,box,ANIMAL,flamingo,10,OA,L,error,FALSE,tortoise,wc_event_error
2070024,27,retrieval_trial,1871.41499994323,university,wolf,LOCATION,university,18,AL,O,1,FALSE,university,1
2070024,28,retrieval_trial,2231.64999997243,forest,chicken,LOCATION,forest,13,AL,O,1,FALSE,forest,1
2070024,29,retrieval_trial,1754.74499992561,gym,badger,LOCATION,gym,17,AL,O,1,FALSE,gym,1
2070024,30,retrieval_trial,2433.2000000868,skipping rope,church,OBJECT,skipping rope,3,LO,A,1,FALSE,skipping rope,1
2070024,31,retrieval_trial,4192.73999996949,whistle,theatre,OBJECT,dice,1,LO,A,error,FALSE,whistle,wc_event_error
2070024,32,retrieval_trial,9976.65000000002,NA,monkey,LOCATION,living room,15,AL,O,error,FALSE,NA,miss
2070024,33,retrieval_trial,2838.31500005908,cruise ship,hamster,LOCATION,cruise ship,16,AL,O,1,FALSE,cruise ship,1
2070024,34,retrieval_trial,2220.15499998815,carrot,circus,OBJECT,carrot,5,LO,A,1,FALSE,carrot,1
2070024,35,retrieval_trial,9976.63300000003,NA,camera,ANIMAL,goat,11,OA,L,error,FALSE,NA,miss
2070024,36,retrieval_trial,2911.5949999541,backpack,post office,OBJECT,backpack,4,LO,A,1,FALSE,backpack,1
2070024,37,retrieval_trial,7129.00999991689,peacock,book,ANIMAL,kangaroo,7,OA,L,error,FALSE,peacock,wc_event_error
2070024,38,retrieval_trial,2787.74999990128,butterfly,spoon,ANIMAL,butterfly,9,OA,L,1,FALSE,butterfly,1
2075950,3,retrieval_trial,3764.11499999813,cat,gym,ANIMAL,badger,17,LA,O,error,FALSE,cat,wc_event_error
2075950,4,retrieval_trial,4268.67000000493,hamster,cruise ship,ANIMAL,hamster,16,LA,O,1,FALSE,hamster,1
2075950,5,retrieval_trial,7445.8650000015,kitchen,dice,LOCATION,theatre,1,OL,A,error,FALSE,kitchen,wc_event_error
2075950,6,retrieval_trial,7406.00999999879,lake,butterfly,OBJECT,spoon,9,AO,L,error,FALSE,lake,be_cat_error
2075950,7,retrieval_trial,7007.86499999958,pig,railway station,ANIMAL,pig,14,LA,O,1,FALSE,pig,1
2075950,8,retrieval_trial,8208.53999999963,dog,forest,ANIMAL,chicken,13,LA,O,error,FALSE,dog,wc_event_error
2075950,9,retrieval_trial,8836.56999999948,cat,living room,ANIMAL,monkey,15,LA,O,error,FALSE,cat,wc_event_error
2075950,10,retrieval_trial,4058.99499999936,camera,goat,OBJECT,camera,11,AO,L,1,FALSE,camera,1
2075950,11,retrieval_trial,6745.78499999922,classroom,clock,LOCATION,mountain,6,OL,A,error,FALSE,classroom,wc_event_error
2075950,12,retrieval_trial,6559.20999999938,spoon,bear,OBJECT,mug,12,AO,L,error,FALSE,spoon,wc_event_error
2075950,13,retrieval_trial,7416.59999999683,glasses,flamingo,OBJECT,box,10,AO,L,error,FALSE,glasses,wc_event_error
2075950,14,retrieval_trial,7819.95999999344,garden,skipping rope,LOCATION,church,3,OL,A,error,FALSE,garden,wc_event_error
2075950,15,retrieval_trial,8342.65500000026,fox,university,ANIMAL,wolf,18,LA,O,error,FALSE,fox,wc_event_error
2075950,16,retrieval_trial,2771.02500000189,circus,carrot,LOCATION,circus,5,OL,A,1,FALSE,circus,1
2075950,17,retrieval_trial,4904.72000000579,classroom,kite,LOCATION,classroom,2,OL,A,1,FALSE,classroom,1
2075950,18,retrieval_trial,6414.20500000101,ball,kangaroo,OBJECT,book,7,AO,L,error,FALSE,ball,wc_event_error
2075950,19,retrieval_trial,7498.11999999662,carrot,zebra,OBJECT,ice cream,8,AO,L,error,FALSE,carrot,wc_event_error
2075950,20,retrieval_trial,3491.34500000218,post office,backpack,LOCATION,post office,4,OL,A,1,FALSE,post office,1
2075950,21,retrieval_trial,7352.58500000066,bee,mug,ANIMAL,bear,12,OA,L,error,FALSE,bee,wc_event_error
2075950,22,retrieval_trial,8169.53999999538,house,hamster,LOCATION,cruise ship,16,AL,O,CHECK,CHECK,house,CHECK
2075950,23,retrieval_trial,6481.85999999987,carrot,circus,OBJECT,carrot,5,LO,A,1,FALSE,carrot,1
2075950,24,retrieval_trial,7998.9200000054,library,wolf,LOCATION,university,18,AL,O,error,FALSE,library,wc_event_error
2075950,25,retrieval_trial,6049.18499999621,house,monkey,LOCATION,living room,15,AL,O,CHECK,CHECK,house,CHECK
2075950,26,retrieval_trial,8282.10000000382,cow,ice cream,ANIMAL,zebra,8,OA,L,error,FALSE,cow,wc_event_error
2075950,27,retrieval_trial,8224.99500000407,glasses,mountain,OBJECT,clock,6,LO,A,error,FALSE,glasses,wc_event_error
2075950,28,retrieval_trial,6220.39999999828,butterfly,spoon,ANIMAL,butterfly,9,OA,L,1,FALSE,butterfly,1
2075950,29,retrieval_trial,7790.89999999991,kite,classroom,OBJECT,kite,2,LO,A,1,FALSE,kite,1
2075950,30,retrieval_trial,9976.90500000003,NA,camera,ANIMAL,goat,11,OA,L,error,FALSE,NA,miss
2075950,31,retrieval_trial,7944.28000000329,keys,theatre,OBJECT,dice,1,LO,A,error,TRUE,key,wc_event_error
2075950,32,retrieval_trial,7415.05999999936,phone,church,OBJECT,skipping rope,3,LO,A,error,FALSE,phone,wc_event_error
2075950,33,retrieval_trial,8590.45999999926,frog,book,ANIMAL,kangaroo,7,OA,L,error,FALSE,frog,wc_event_error
2075950,34,retrieval_trial,2309.67999999854,railway station,pig,LOCATION,railway station,14,AL,O,1,FALSE,railway station,1
2075950,35,retrieval_trial,8179.81499999575,jail,badger,LOCATION,gym,17,AL,O,error,FALSE,jail,wc_event_error
2075950,36,retrieval_trial,7867.63000000059,park,chicken,LOCATION,forest,13,AL,O,error,FALSE,park,wc_event_error
2075950,37,retrieval_trial,4469.55000000168,backpack,post office,OBJECT,backpack,4,LO,A,1,FALSE,backpack,1
2075950,38,retrieval_trial,5546.94499999448,lion,box,ANIMAL,flamingo,10,OA,L,error,FALSE,lion,wc_event_error
2076070,3,retrieval_trial,5339.35999998357,shovel,zebra,OBJECT,ice cream,8,AO,L,CHECK,CHECK,shovel,CHECK
2076070,4,retrieval_trial,3810.05500000902,fox,university,ANIMAL,wolf,18,LA,O,error,FALSE,fox,wc_event_error
2076070,5,retrieval_trial,3542.72500000661,hamster,cruise ship,ANIMAL,hamster,16,LA,O,1,FALSE,hamster,1
2076070,6,retrieval_trial,1940.40999998106,sheep,skipping rope,LOCATION,church,3,OL,A,error,FALSE,sheep,we_cat_error
2076070,7,retrieval_trial,3029.85500002978,mountain,clock,LOCATION,mountain,6,OL,A,1,FALSE,mountain,1
2076070,8,retrieval_trial,4285.67500005011,basement,dice,LOCATION,theatre,1,OL,A,error,FALSE,basement,wc_event_error
2076070,9,retrieval_trial,9993.87800000003,NA,forest,ANIMAL,chicken,13,LA,O,error,FALSE,NA,miss
2076070,10,retrieval_trial,5987.85999999382,rat,gym,ANIMAL,badger,17,LA,O,CHECK,CHECK,rat,CHECK
2076070,11,retrieval_trial,9993.84100000001,NA,living room,ANIMAL,monkey,15,LA,O,error,FALSE,NA,miss
2076070,12,retrieval_trial,8162.39000001224,map,flamingo,OBJECT,box,10,AO,L,error,FALSE,map,wc_event_error
2076070,13,retrieval_trial,5724.48000003351,mug,bear,OBJECT,mug,12,AO,L,1,FALSE,mug,1
2076070,14,retrieval_trial,4722.49000001466,classroom,kite,LOCATION,classroom,2,OL,A,1,FALSE,classroom,1
2076070,15,retrieval_trial,4097.70500002196,circus,carrot,LOCATION,circus,5,OL,A,1,FALSE,circus,1
2076070,16,retrieval_trial,9993.87200000009,arva,railway station,ANIMAL,pig,14,LA,O,CHECK,CHECK,arva,CHECK
2076070,17,retrieval_trial,9993.89900000009,trophy,goat,OBJECT,camera,11,AO,L,error,FALSE,trophy,wc_event_error
2076070,18,retrieval_trial,7689.87000000197,park,backpack,LOCATION,post office,4,OL,A,error,FALSE,park,wc_event_error
2076070,19,retrieval_trial,9993.91299999994,NA,kangaroo,OBJECT,book,7,AO,L,error,FALSE,NA,miss
2076070,20,retrieval_trial,6520.80999995815,paper,butterfly,OBJECT,spoon,9,AO,L,CHECK,CHECK,paper,CHECK
2076070,21,retrieval_trial,2605.93499999959,backpack,post office,OBJECT,backpack,4,LO,A,1,FALSE,backpack,1
2076070,22,retrieval_trial,4016.40999998199,stadium,pig,LOCATION,railway station,14,AL,O,error,FALSE,stadium,wc_event_error
2076070,23,retrieval_trial,9993.83700000006,kite,theatre,OBJECT,dice,1,LO,A,error,FALSE,kite,wc_event_error
2076070,24,retrieval_trial,2171.83499998646,university,wolf,LOCATION,university,18,AL,O,1,FALSE,university,1
2076070,25,retrieval_trial,2388.68500001263,flamingo,box,ANIMAL,flamingo,10,OA,L,1,FALSE,flamingo,1
2076070,26,retrieval_trial,3426.01000005379,goat,camera,ANIMAL,goat,11,OA,L,1,FALSE,goat,1
2076070,27,retrieval_trial,6204.03000002261,zebra,ice cream,ANIMAL,zebra,8,OA,L,1,FALSE,zebra,1
2076070,28,retrieval_trial,4992.11500003003,crocodile,book,ANIMAL,kangaroo,7,OA,L,error,FALSE,crocodile,wc_event_error
2076070,29,retrieval_trial,8817.5400000182,rat,circus,OBJECT,carrot,5,LO,A,CHECK,CHECK,rat,CHECK
2076070,30,retrieval_trial,5474.38999998849,butterfly,spoon,ANIMAL,butterfly,9,OA,L,1,FALSE,butterfly,1
2076070,31,retrieval_trial,3139.71999997739,clock,mountain,OBJECT,clock,6,LO,A,1,FALSE,clock,1
2076070,32,retrieval_trial,5316.55500002671,jumprope,church,OBJECT,skipping rope,3,LO,A,CHECK,CHECK,jumprope,CHECK
2076070,33,retrieval_trial,1759.36999998521,bear,mug,ANIMAL,bear,12,OA,L,1,FALSE,bear,1
2076070,34,retrieval_trial,2644.67499998864,kite,classroom,OBJECT,kite,2,LO,A,1,FALSE,kite,1
2076070,35,retrieval_trial,3487.11499996716,cruise ship,hamster,LOCATION,cruise ship,16,AL,O,1,FALSE,cruise ship,1
2076070,36,retrieval_trial,2321.59000000684,forest,chicken,LOCATION,forest,13,AL,O,1,FALSE,forest,1
2076070,37,retrieval_trial,2088.30000000307,living room,monkey,LOCATION,living room,15,AL,O,1,FALSE,living room,1
2076070,38,retrieval_trial,5244.98999997741,stadium,badger,LOCATION,gym,17,AL,O,error,FALSE,stadium,wc_event_error
2069370,3,retrieval_trial,5793.23500022292,snake,bedroom,ANIMAL,tortoise,32,LA,O,error,FALSE,snake,wc_event_error
2069370,4,retrieval_trial,5130.31500019133,sock,platypus,OBJECT,sock,27,AO,L,1,FALSE,sock,1
2069370,5,retrieval_trial,9139.29000031203,woods,violin,LOCATION,garage,20,OL,A,CHECK,CHECK,woods,CHECK
