participant_private_id,trial_number,display,reaction_time,response,cue,category_cue,target,eventno,pairtype,untested_element,accuracy,typed_response,accuracy_types
2075957,3,retrieval_trial,1763.00000000001,no idea,ball,LOCATION,forest,13,OL,A,error,no idea,error
2075957,4,retrieval_trial,1851.00000000001,no idea,spider,OBJECT,carrot,5,AO,L,error,no idea,error
2075957,5,retrieval_trial,2331,i can't do this,hairdressers,ANIMAL,flamingo,10,LA,O,error,i can't do this,error
2075957,6,retrieval_trial,2807,lll,garden,ANIMAL,goat,11,LA,O,error,lll,error
2075957,7,retrieval_trial,1325.99999999999,kkk,ring,LOCATION,living room,15,OL,A,error,kkk,error
2075957,8,retrieval_trial,1812,no,waterfall,ANIMAL,zebra,8,LA,O,error,no,error
2075957,9,retrieval_trial,751.999999999971,whale,lighthouse,ANIMAL,bear,12,LA,O,error,whale,wc_event_error
2075957,10,retrieval_trial,9978,university,trophy,LOCATION,university,18,OL,A,1,universit,1
2075957,11,retrieval_trial,1464,i can't type quick,sheep,OBJECT,skipping rope,3,AO,L,error,i can't type quick,error
2075957,12,retrieval_trial,644,enough,chainsaw,LOCATION,gym,17,OL,A,error,enough,error
2075957,13,retrieval_trial,3057,nnn,fish,OBJECT,dice,1,AO,L,error,nnn,error
2075957,14,retrieval_trial,637,no,statue,LOCATION,cruise ship,16,OL,A,error,no,error
2075957,15,retrieval_trial,1632,no,bank,ANIMAL,butterfly,9,LA,O,error,no,error
2075957,16,retrieval_trial,1842.99999999997,?,snake,OBJECT,kite,2,AO,L,error,?,error
2075957,17,retrieval_trial,954,?,cow,OBJECT,backpack,4,AO,L,error,?,error
2075957,18,retrieval_trial,1237,?,giraffe,OBJECT,clock,6,AO,L,error,?,error
2075957,19,retrieval_trial,1609,?,treehouse,ANIMAL,kangaroo,7,LA,O,error,?,error
2075957,20,retrieval_trial,1310,i remember,glasses,LOCATION,railway station,14,OL,A,error,i remember,error
2075957,21,retrieval_trial,4816.99999999988,ball,forest,OBJECT,ball,13,LO,A,1,ball,1
2075957,22,retrieval_trial,2369.00000000012,hairdressers,flamingo,LOCATION,hairdressers,10,AL,O,1,hairdresser,1
2075957,23,retrieval_trial,2770,lighthouse,bear,LOCATION,lighthouse,12,AL,O,1,lighthouse,1
2075957,24,retrieval_trial,2611,map,railway station,OBJECT,glasses,14,LO,A,error,map,wc_event_error
2075957,25,retrieval_trial,4059,no,skipping rope,ANIMAL,sheep,3,OA,L,error,no,error
2075957,26,retrieval_trial,3242,statue,cruise ship,OBJECT,statue,16,LO,A,1,statue,1
2075957,27,retrieval_trial,3095,no,gym,OBJECT,chainsaw,17,LO,A,error,no,error
2075957,28,retrieval_trial,2484.00000000012,no,dice,ANIMAL,fish,1,OA,L,error,no,error
2075957,29,retrieval_trial,3516,no,butterfly,LOCATION,bank,9,AL,O,error,no,error
2075957,30,retrieval_trial,2950.00000000012,treehouse,kangaroo,LOCATION,treehouse,7,AL,O,1,treehouse,1
2075957,31,retrieval_trial,2734,snake,kite,ANIMAL,snake,2,OA,L,1,snake,1
2075957,32,retrieval_trial,5488.00000000012,trophy,university,OBJECT,trophy,18,LO,A,1,trophy,1
2075957,33,retrieval_trial,2430,no,carrot,ANIMAL,spider,5,OA,L,error,no,error
2075957,34,retrieval_trial,2717,no,clock,ANIMAL,giraffe,6,OA,L,error,no,error
2075957,35,retrieval_trial,1865,no,goat,LOCATION,garden,11,AL,O,error,no,error
2075957,36,retrieval_trial,2907,no,zebra,LOCATION,waterfall,8,AL,O,error,no,error
2075957,37,retrieval_trial,2597.99999999988,no,backpack,ANIMAL,cow,4,OA,L,error,no,error
2075957,38,retrieval_trial,2838,no,living room,OBJECT,ring,15,LO,A,error,no,error
2069537,3,retrieval_trial,1311.12500000745,church,skipping rope,LOCATION,church,3,OL,A,1,church,1
2069537,4,retrieval_trial,7497.23999993876,cat,forest,ANIMAL,chicken,13,LA,O,error,cat,wc_event_error
2069537,5,retrieval_trial,9973.147,NA,carrot,LOCATION,circus,5,OL,A,error,NA,miss
2069537,6,retrieval_trial,2434.46499994025,mouse,cruise ship,ANIMAL,hamster,16,LA,O,error,mouse,wc_event_error
2069537,7,retrieval_trial,4080.79000003636,bike,bear,OBJECT,mug,12,AO,L,error,bike,wc_event_error
2069537,8,retrieval_trial,8464.34499975294,museum,dice,LOCATION,theatre,1,OL,A,error,museum,wc_event_error
2069537,9,retrieval_trial,6219.08500045538,park,backpack,LOCATION,post office,4,OL,A,error,park,wc_event_error
2069537,10,retrieval_trial,7942.9250000976,rat,railway station,ANIMAL,pig,14,LA,O,error,rat,error
2069537,11,retrieval_trial,4301.23500013724,cat,university,ANIMAL,wolf,18,LA,O,error,cat,wc_event_error
2069537,12,retrieval_trial,7602.73499973118,book,goat,OBJECT,camera,11,AO,L,error,book,wc_event_error
2069537,13,retrieval_trial,3869.55499975011,cat,living room,ANIMAL,monkey,15,LA,O,error,cat,wc_event_error
2069537,14,retrieval_trial,2744.51499991119,hill,kite,LOCATION,classroom,2,OL,A,error,hill,error
2069537,15,retrieval_trial,1820.89999970049,book,kangaroo,OBJECT,book,7,AO,L,1,book,1
2069537,16,retrieval_trial,3778.26000005007,box,flamingo,OBJECT,box,10,AO,L,1,box,1
2069537,17,retrieval_trial,3040.92500032857,hippo,gym,ANIMAL,badger,17,LA,O,error,hippo,wc_event_error
2069537,18,retrieval_trial,3118.59499989077,headphones,butterfly,OBJECT,spoon,9,AO,L,error,headphones,wc_event_error
2069537,19,retrieval_trial,8496.604999993,keys,zebra,OBJECT,ice cream,8,AO,L,error,key,wc_event_error
2069537,20,retrieval_trial,3343.89499993995,mountain,clock,LOCATION,mountain,6,OL,A,1,mountain,1
2069537,21,retrieval_trial,1497.37500026822,skipping rope,church,OBJECT,skipping rope,3,LO,A,1,skipping rope,1
2069537,22,retrieval_trial,2820.29000017792,bag,post office,OBJECT,backpack,4,LO,A,error,bag,error
2069537,23,retrieval_trial,3758.45000008121,reindeer,ice cream,ANIMAL,zebra,8,OA,L,error,reindeer,wc_event_error
2069537,24,retrieval_trial,3408.89500034973,city,monkey,LOCATION,living room,15,AL,O,error,city,wc_event_error
2069537,25,retrieval_trial,4046.24499985948,wolf,mug,ANIMAL,bear,12,OA,L,error,wolf,wc_event_error
2069537,26,retrieval_trial,1335.35499963909,kangaroo,book,ANIMAL,kangaroo,7,OA,L,1,kangaroo,1
2069537,27,retrieval_trial,3876.84000004083,museum,hamster,LOCATION,cruise ship,16,AL,O,error,museum,wc_event_error
2069537,28,retrieval_trial,6092.86000020802,airport,badger,LOCATION,gym,17,AL,O,error,aiprort,wc_event_error
2069537,29,retrieval_trial,2299.60000002757,forest,chicken,LOCATION,forest,13,AL,O,1,forest,1
2069537,30,retrieval_trial,2865.56000029668,butterfly,spoon,ANIMAL,butterfly,9,OA,L,1,butterfly,1
2069537,31,retrieval_trial,2912.50499989837,city,wolf,LOCATION,university,18,AL,O,error,city,wc_event_error
2069537,32,retrieval_trial,2276.99999976903,flamingo,box,ANIMAL,flamingo,10,OA,L,1,flamingo,1
2069537,33,retrieval_trial,5935.72500022128,knife,circus,OBJECT,carrot,5,LO,A,error,knife,error
2069537,34,retrieval_trial,5685.68000011146,chalk,classroom,OBJECT,kite,2,LO,A,error,chalk,error
2069537,35,retrieval_trial,1648.69000017643,dice,theatre,OBJECT,dice,1,LO,A,1,dice,1
2069537,36,retrieval_trial,5774.27500020713,reindeer,camera,ANIMAL,goat,11,OA,L,error,reindeer,wc_event_error
2069537,37,retrieval_trial,4105.2600000985,museum,pig,LOCATION,railway station,14,AL,O,error,museum,wc_event_error
2069537,38,retrieval_trial,1673.87000005692,clock,mountain,OBJECT,clock,6,LO,A,1,clock,1
2075962,3,retrieval_trial,4678.40999993496,station,handbag,LOCATION,stadium,19,OL,A,error,station,wc_event_error
2075962,4,retrieval_trial,2645.23999998346,aquarium,whisk,LOCATION,aquarium,21,OL,A,1,aquarium,1
2075962,5,retrieval_trial,2026.58999990672,sock,platypus,OBJECT,sock,27,AO,L,1,sock,1
2075962,6,retrieval_trial,5995.50000019372,supermarket,wallet,LOCATION,balcony,23,OL,A,error,supermarket,wc_event_error
2075962,7,retrieval_trial,7002.95499991626,NA,reindeer,OBJECT,paintbrush,29,AO,L,error,NA,miss
2075962,8,retrieval_trial,5598.80500007421,library,violin,LOCATION,garage,20,OL,A,error,library,wc_event_error
2075962,9,retrieval_trial,1973.81500015035,crocodile,bus stop,ANIMAL,crocodile,35,LA,O,1,crocodile,1
2075962,10,retrieval_trial,9990.75599999999,church,vase,LOCATION,bakery,24,OL,A,error,church,wc_event_error
2075962,11,retrieval_trial,4358.17999998108,cake,tiger,OBJECT,cake,30,AO,L,1,cake,1
2075962,12,retrieval_trial,6727.779999841,dog,hospital,ANIMAL,fox,33,LA,O,error,dog,wc_event_error
2075962,13,retrieval_trial,8922.86999989301,sock,camel,OBJECT,bike,28,AO,L,error,sock,wc_event_error
2075962,14,retrieval_trial,4895.75000014156,wolf,city,ANIMAL,frog,36,LA,O,error,wolf,wc_event_error
2075962,15,retrieval_trial,2322.93999986723,cat,jail,ANIMAL,cat,34,LA,O,1,cat,1
2075962,16,retrieval_trial,7344.40999990329,dog,bedroom,ANIMAL,tortoise,32,LA,O,error,dog,wc_event_error
2075962,17,retrieval_trial,7217.89500000887,mouse,park,ANIMAL,lion,31,LA,O,error,mouse,wc_event_error
2075962,18,retrieval_trial,4149.74499982782,headphones,dragonfly,OBJECT,headphones,25,AO,L,1,headphones,1
2075962,19,retrieval_trial,7285.90000001714,library,lamp,LOCATION,cafe,22,OL,A,error,library,wc_event_error
2075962,20,retrieval_trial,2889.51499992982,bottle,bat,OBJECT,bottle,26,AO,L,1,bottle,1
2075962,21,retrieval_trial,2012.86500017159,bat,bottle,ANIMAL,bat,26,OA,L,1,bat,1
2075962,22,retrieval_trial,6511.73499994911,owl,stadium,OBJECT,handbag,19,LO,A,error,owl,error
2075962,23,retrieval_trial,2643.51000008173,reindeer,paintbrush,ANIMAL,reindeer,29,OA,L,1,reindeer,1
2075962,24,retrieval_trial,5114.11500000395,whisk,aquarium,OBJECT,whisk,21,LO,A,1,whisk,1
2075962,25,retrieval_trial,6848.81000011228,lion,cake,ANIMAL,tiger,30,OA,L,error,lion,wc_event_error
2075962,26,retrieval_trial,4763.38499994017,library,frog,LOCATION,city,36,AL,O,error,library,wc_event_error
2075962,27,retrieval_trial,5112.17500013299,vase,bakery,OBJECT,vase,24,LO,A,1,vase,1
2075962,28,retrieval_trial,1904.64500011876,jail,cat,LOCATION,jail,34,AL,O,1,jail,1
2075962,29,retrieval_trial,9990.10100000002,NA,cafe,OBJECT,lamp,22,LO,A,error,NA,miss
2075962,30,retrieval_trial,4546.61499988288,supermarket,fox,LOCATION,hospital,33,AL,O,error,supermarket,wc_event_error
2075962,31,retrieval_trial,1503.3650000114,dragonfly,headphones,ANIMAL,dragonfly,25,OA,L,1,dragonfly,1
2075962,32,retrieval_trial,3010.40500006638,bedroom,tortoise,LOCATION,bedroom,32,AL,O,1,bedroom,1
2075962,33,retrieval_trial,1270.66999999806,camel,bike,ANIMAL,camel,28,OA,L,1,camel,1
2075962,34,retrieval_trial,5989.18999987654,mouse,garage,OBJECT,violin,20,LO,A,error,mouse,be_cat_error
2075962,35,retrieval_trial,2944.99500002712,bus stop,crocodile,LOCATION,bus stop,35,AL,O,1,busstop,1
2075962,36,retrieval_trial,7382.31000001542,cake,balcony,OBJECT,wallet,23,LO,A,error,cake,wc_event_error
2075962,37,retrieval_trial,1431.63499981165,platypus,sock,ANIMAL,platypus,27,OA,L,1,platypus,1
2075962,38,retrieval_trial,2329.8299999442,park,lion,LOCATION,park,31,AL,O,1,park,1
2075956,3,retrieval_trial,3880.55000000168,shoe,elephant,OBJECT,shoe,40,AO,L,1,shoe,1
2075956,4,retrieval_trial,4504.16500000574,museum,calculator,LOCATION,museum,52,OL,A,1,museum,1
2075956,5,retrieval_trial,8084.57000000635,fish,harbour,ANIMAL,peacock,47,LA,O,error,fish,wc_event_error
2075956,6,retrieval_trial,7942.23000000056,church,television,LOCATION,beach,53,OL,A,error,church,wc_event_error
2075956,7,retrieval_trial,8163.49999999511,phone,squirrel,OBJECT,drum,39,AO,L,error,phone,wc_event_error
2075956,8,retrieval_trial,8810.42999999772,bee,casino,ANIMAL,octopus,43,LA,O,error,bee,wc_event_error
2075956,9,retrieval_trial,9268.20000000589,fish,nightclub,ANIMAL,aardvark,45,LA,O,error,fish,wc_event_error
2075956,10,retrieval_trial,9980.307,wis,penguin,OBJECT,whistle,41,AO,L,error,wis,error
2075956,11,retrieval_trial,8055.37999999069,river,screwdriver,LOCATION,factory,49,OL,A,error,river,wc_event_error
2075956,12,retrieval_trial,9979.60100000002,bakerr,flower,LOCATION,basement,50,OL,A,error,bakerr,wc_event_error
2075956,13,retrieval_trial,5964.68999999342,candle,bee,OBJECT,candle,38,AO,L,1,candle,1
2075956,14,retrieval_trial,8353.14500000095,panda,cave,ANIMAL,dog,46,LA,O,error,panda,wc_event_error
2075956,15,retrieval_trial,8177.08000000857,umbrella,horse,OBJECT,phone,37,AO,L,error,umbrella,wc_event_error
2075956,16,retrieval_trial,9979.90100000001,NA,necklace,LOCATION,vineyard,51,OL,A,error,NA,miss
2075956,17,retrieval_trial,7497.48999999429,classroom,hammer,LOCATION,pharmacy,54,OL,A,error,classroom,wc_event_error
2075956,18,retrieval_trial,9979.734,ba,car park,ANIMAL,hippo,44,LA,O,error,ba,error
2075956,19,retrieval_trial,6690.4349999968,duck,windmill,ANIMAL,duck,48,LA,O,1,duck,1
2075956,20,retrieval_trial,5511.05000000098,balloon,rabbit,OBJECT,balloon,42,AO,L,1,balloon,1
2075956,21,retrieval_trial,6726.73000000941,panda,whistle,ANIMAL,penguin,41,OA,L,error,panda,wc_event_error
2075956,22,retrieval_trial,6063.24499999755,whake,vineyard,OBJECT,necklace,51,LO,A,error,whake,we_cat_error
2075956,23,retrieval_trial,8067.39999999991,cow,phone,ANIMAL,horse,37,OA,L,error,cow,wc_event_error
2075956,24,retrieval_trial,7454.98000000953,bat,shoe,ANIMAL,elephant,40,OA,L,error,bat,wc_event_error
2075956,25,retrieval_trial,5647.66000000236,windmill,duck,LOCATION,windmill,48,AL,O,1,windmill,1
2075956,26,retrieval_trial,7323.28000001144,parl,octopus,LOCATION,casino,43,AL,O,error,parl,error
2075956,27,retrieval_trial,8879.1099999944,hammer,pharmacy,OBJECT,hammer,54,LO,A,1,hammer,1
2075956,28,retrieval_trial,8545.65999998886,kitchen,hippo,LOCATION,car park,44,AL,O,error,kitchen,wc_event_error
2075956,29,retrieval_trial,3490.55499999668,cave,dog,LOCATION,cave,46,AL,O,1,cave,1
2075956,30,retrieval_trial,9606.5399999934,dog,candle,ANIMAL,bee,38,OA,L,error,dog,wc_event_error
2075956,31,retrieval_trial,2983.229999998,harbour,peacock,LOCATION,harbour,47,AL,O,1,harbour,1
2075956,32,retrieval_trial,5857.38000000129,sock,basement,OBJECT,flower,50,LO,A,error,sock,wc_event_error
2075956,33,retrieval_trial,8164.94499999681,candke,museum,OBJECT,calculator,52,LO,A,error,candke,wc_event_error
2075956,34,retrieval_trial,8896.76000000327,wolf,balloon,ANIMAL,rabbit,42,OA,L,error,wolf,wc_event_error
2075956,35,retrieval_trial,6702.35500000126,mouse,beach,OBJECT,television,53,LO,A,error,mouse,we_cat_error
2075956,36,retrieval_trial,5947.1399999893,screwdriver,factory,OBJECT,screwdriver,49,LO,A,1,screwdriver,1
2075956,37,retrieval_trial,8252.69000000844,froh,drum,ANIMAL,squirrel,39,OA,L,error,froh,wc_event_error
2075956,38,retrieval_trial,5863.99500000698,nightclub,aardvark,LOCATION,nightclub,45,AL,O,1,nightclub,1
2069383,3,retrieval_trial,8217.42499992251,toothbrush,dog,OBJECT,toothbrush,46,AO,L,1,toothbrush,1
2069383,4,retrieval_trial,2739.45500003174,lake,candle,LOCATION,lake,38,OL,A,1,lake,1
2069383,5,retrieval_trial,9982.90800000001,NA,peacock,OBJECT,jigsaw,47,AO,L,error,NA,miss
2069383,6,retrieval_trial,3987.67499998212,hat,aardvark,OBJECT,pen,45,AO,L,error,hat,wc_event_error
2069383,7,retrieval_trial,5968.11499982141,paintbrush,duck,OBJECT,jacket,48,AO,L,error,paintbrush,wc_event_error
2069383,8,retrieval_trial,3173.75499987975,scissors,octopus,OBJECT,scissors,43,AO,L,1,scissors,1
2069383,9,retrieval_trial,3746.35999999009,cinema,shoe,LOCATION,cinema,40,OL,A,1,cinema,1
2069383,10,retrieval_trial,7602.03000018373,ant,pharmacy,ANIMAL,beaver,54,LA,O,error,ant,wc_event_error
2069383,11,retrieval_trial,9306.76999990828,bird,beach,ANIMAL,mouse,53,LA,O,error,bird,error
2069383,12,retrieval_trial,4713.20999995805,library,whistle,LOCATION,library,41,OL,A,1,library,1
2069383,13,retrieval_trial,9983.58099999998,NA,museum,ANIMAL,crab,52,LA,O,error,NA,miss
2069383,14,retrieval_trial,7864.770000102,tiger,vineyard,ANIMAL,whale,51,LA,O,error,tiger,wc_event_error
2069383,15,retrieval_trial,9983.196,cr,balloon,LOCATION,swimming pool,42,OL,A,error,cr,error
2069383,16,retrieval_trial,6590.22999997251,lion,basement,ANIMAL,ostrich,50,LA,O,error,lion,wc_event_error
2069383,17,retrieval_trial,4747.74000002071,binoculars,hippo,OBJECT,binoculars,44,AO,L,1,binoculars,1
2069383,18,retrieval_trial,3884.47499996983,kitchen,phone,LOCATION,kitchen,37,OL,A,1,kitchen,1
2069383,19,retrieval_trial,3039.70999992453,garage,drum,LOCATION,supermarket,39,OL,A,error,garge,wc_event_error
2069383,20,retrieval_trial,7554.92000002414,tiger,factory,ANIMAL,lobster,49,LA,O,error,tiger,wc_event_error
2069383,21,retrieval_trial,3606.39500012621,phone,kitchen,OBJECT,phone,37,LO,A,1,phone,1
2069383,22,retrieval_trial,4607.61500010267,library,mouse,LOCATION,beach,53,AL,O,error,library,wc_event_error
2069383,23,retrieval_trial,3705.02999983728,library,beaver,LOCATION,pharmacy,54,AL,O,error,library,wc_event_error
2069383,24,retrieval_trial,5742.90499999188,octopus,scissors,ANIMAL,octopus,43,OA,L,1,octopus,1
2069383,25,retrieval_trial,5192.69499997608,whistle,library,OBJECT,whistle,41,LO,A,1,whistle,1
2069383,26,retrieval_trial,9983.19999999995,NA,ostrich,LOCATION,basement,50,AL,O,error,NA,miss
2069383,27,retrieval_trial,3273.80999992602,ostrich,jigsaw,ANIMAL,peacock,47,OA,L,error,ostrich,wc_event_error
2069383,28,retrieval_trial,3227.49499999918,drums,supermarket,OBJECT,drum,39,LO,A,1,drums,1
2069383,29,retrieval_trial,7084.46000004187,garage,lobster,LOCATION,factory,49,AL,O,error,garage,wc_event_error
2069383,30,retrieval_trial,5311.86499982141,mountain,whale,LOCATION,vineyard,51,AL,O,error,mountain,wc_event_error
2069383,31,retrieval_trial,4829.70999996178,balloon,swimming pool,OBJECT,balloon,42,LO,A,1,ballon,1
2069383,32,retrieval_trial,6961.74499997869,lion,jacket,ANIMAL,duck,48,OA,L,error,lion,wc_event_error
2069383,33,retrieval_trial,8223.62499986775,aardvark,pen,ANIMAL,aardvark,45,OA,L,1,aard,1
2069383,34,retrieval_trial,9983.25,NA,cinema,OBJECT,shoe,40,LO,A,error,NA,miss
2069383,35,retrieval_trial,9983.21299999999,NA,crab,LOCATION,museum,52,AL,O,error,NA,miss
2069383,36,retrieval_trial,2963.69499992579,dog,toothbrush,ANIMAL,dog,46,OA,L,1,dog,1
2069383,37,retrieval_trial,1948.34500015713,hippo,binoculars,ANIMAL,hippo,44,OA,L,1,hippo,1
2069383,38,retrieval_trial,4218.92499993555,candle,lake,OBJECT,candle,38,LO,A,1,candle,1
2069365,3,retrieval_trial,3856,elephant,supermarket,ANIMAL,squirrel,39,LA,O,error,elephant,wc_event_error
2069365,4,retrieval_trial,2761,harbour,jigsaw,LOCATION,harbour,47,OL,A,1,harbour,1
2069365,5,retrieval_trial,3557,television,mouse,OBJECT,television,53,AO,L,1,television,1
2069365,6,retrieval_trial,3694,house,pen,LOCATION,nightclub,45,OL,A,error,house,error
2069365,7,retrieval_trial,2135,car park,binoculars,LOCATION,car park,44,OL,A,1,carpark,1
2069365,8,retrieval_trial,2932,feather,ostrich,OBJECT,flower,50,AO,L,error,feather,error
2069365,9,retrieval_trial,3754,house,toothbrush,LOCATION,cave,46,OL,A,error,house,error
2069365,10,retrieval_trial,6755,beach,jacket,LOCATION,windmill,48,OL,A,error,beach,wc_event_error
2069365,11,retrieval_trial,5184,necklace,whale,OBJECT,necklace,51,AO,L,1,necklace,1
2069365,12,retrieval_trial,5433,cat,kitchen,ANIMAL,horse,37,LA,O,error,cat,wc_event_error
2069365,13,retrieval_trial,8209,paper,crab,OBJECT,calculator,52,AO,L,error,paper,error
2069365,14,retrieval_trial,2753,rabbit,swimming pool,ANIMAL,rabbit,42,LA,O,1,rabbit,1
2069365,15,retrieval_trial,3505,sunglasses,beaver,OBJECT,hammer,54,AO,L,error,sunglasses,error
2069365,16,retrieval_trial,3288,elephant,cinema,ANIMAL,elephant,40,LA,O,1,elephant,1
2069365,17,retrieval_trial,6599,cat,lake,ANIMAL,bee,38,LA,O,error,cat,wc_event_error
2069365,18,retrieval_trial,5931,elephant,scissors,LOCATION,casino,43,OL,A,error,elephant,be_cat_error
2069365,19,retrieval_trial,5310,paper,lobster,OBJECT,screwdriver,49,AO,L,error,paper,error
2069365,20,retrieval_trial,4243,tiger,library,ANIMAL,penguin,41,LA,O,error,tiger,wc_event_error
2069365,21,retrieval_trial,1676,lake,bee,LOCATION,lake,38,AL,O,1,lake,1
2069365,22,retrieval_trial,3004,squirrel,nightclub,OBJECT,pen,45,LO,A,error,squirrel,be_cat_error
2069365,23,retrieval_trial,2031,mouse,television,ANIMAL,mouse,53,OA,L,1,mouse,1
2069365,24,retrieval_trial,2274,whale,necklace,ANIMAL,whale,51,OA,L,1,whale,1
2069365,25,retrieval_trial,8642,dog,hammer,ANIMAL,beaver,54,OA,L,error,dog,wc_event_error
2069365,26,retrieval_trial,3629,garage,penguin,LOCATION,library,41,AL,O,error,garage,wc_event_error
2069365,27,retrieval_trial,5689,crab,calculator,ANIMAL,crab,52,OA,L,1,crab,1
2069365,28,retrieval_trial,5217,jacket,windmill,OBJECT,jacket,48,LO,A,1,jacket,1
2069365,29,retrieval_trial,7552,paper,cave,OBJECT,toothbrush,46,LO,A,error,paper,error
2069365,30,retrieval_trial,5870,lobster,screwdriver,ANIMAL,lobster,49,OA,L,1,lobster,1
2069365,31,retrieval_trial,5164,garage,squirrel,LOCATION,supermarket,39,AL,O,error,garage,wc_event_error
2069365,32,retrieval_trial,3704,swimming pool,rabbit,LOCATION,swimming pool,42,AL,O,1,swimming pool,1
2069365,33,retrieval_trial,6783,watch,car park,OBJECT,binoculars,44,LO,A,error,watch,error
2069365,34,retrieval_trial,1650,kitchen,horse,LOCATION,kitchen,37,AL,O,1,kitchen,1
2069365,35,retrieval_trial,5068,dog,flower,ANIMAL,ostrich,50,OA,L,error,dog,wc_event_error
2069365,36,retrieval_trial,3051,pen,casino,OBJECT,scissors,43,LO,A,error,pen,wc_event_error
2069365,37,retrieval_trial,3127,cinema,elephant,LOCATION,cinema,40,AL,O,1,cinema,1
2069365,38,retrieval_trial,5434,game,harbour,OBJECT,jigsaw,47,LO,A,error,game,error
2069522,3,retrieval_trial,1450,horse,kitchen,ANIMAL,horse,37,LA,O,1,horse,1
2069522,4,retrieval_trial,3016,elephant,cinema,ANIMAL,elephant,40,LA,O,1,elephant,1
2069522,5,retrieval_trial,2081,peacock,jigsaw,LOCATION,harbour,47,OL,A,error,peacock,we_cat_error
2069522,6,retrieval_trial,5097,cow,library,ANIMAL,penguin,41,LA,O,error,cow,wc_event_error
2069522,7,retrieval_trial,9984.60000000001,NA,pen,LOCATION,nightclub,45,OL,A,error,NA,miss
2069522,8,retrieval_trial,9984.66,chalk,lobster,OBJECT,screwdriver,49,AO,L,error,chalk,error
2069522,9,retrieval_trial,7076,pig,lake,ANIMAL,bee,38,LA,O,error,pig,wc_event_error
2069522,10,retrieval_trial,2574,octopus,scissors,LOCATION,casino,43,OL,A,error,octopus,we_cat_error
2069522,11,retrieval_trial,6836,ball,beaver,OBJECT,hammer,54,AO,L,error,ball,wc_event_error
2069522,12,retrieval_trial,9385,pen,ostrich,OBJECT,flower,50,AO,L,error,pen,wc_event_error
2069522,13,retrieval_trial,9983.98000000001,vineyard,whale,OBJECT,necklace,51,AO,L,error,vineyard,we_cat_error
2069522,14,retrieval_trial,4419,beach,binoculars,LOCATION,car park,44,OL,A,error,beach,wc_event_error
2069522,15,retrieval_trial,5486,squirrel,supermarket,ANIMAL,squirrel,39,LA,O,1,squirrel,1
2069522,16,retrieval_trial,2653,rabbit,swimming pool,ANIMAL,rabbit,42,LA,O,1,rabbit,1
2069522,17,retrieval_trial,7489,ticket,mouse,OBJECT,television,53,AO,L,error,ticket,error
2069522,18,retrieval_trial,2801,cave,toothbrush,LOCATION,cave,46,OL,A,1,cave,1
2069522,19,retrieval_trial,4620,downtown,jacket,LOCATION,windmill,48,OL,A,error,downtown,error
2069522,20,retrieval_trial,7028,glasses,crab,OBJECT,calculator,52,AO,L,error,glasses,wc_event_error
2069522,21,retrieval_trial,9074,pig,flower,ANIMAL,ostrich,50,OA,L,error,pig,wc_event_error
2069522,22,retrieval_trial,1675,octopus,casino,OBJECT,scissors,43,LO,A,error,octopus,we_cat_error
2069522,23,retrieval_trial,2013,toothbrush,cave,OBJECT,toothbrush,46,LO,A,1,toothbrush,1
2069522,24,retrieval_trial,7637,pig,hammer,ANIMAL,beaver,54,OA,L,error,pig,wc_event_error
2069522,25,retrieval_trial,6866,cinema,elephant,LOCATION,cinema,40,AL,O,1,cinema,1
2069522,26,retrieval_trial,3007,beach,penguin,LOCATION,library,41,AL,O,error,beach,wc_event_error
2069522,27,retrieval_trial,9984.64000000001,NA,nightclub,OBJECT,pen,45,LO,A,error,NA,miss
2069522,28,retrieval_trial,2530,grocery store,squirrel,LOCATION,supermarket,39,AL,O,1,grocery store,1
2069522,29,retrieval_trial,3908,knife,windmill,OBJECT,jacket,48,LO,A,error,knife,error
2069522,30,retrieval_trial,7592,pig,necklace,ANIMAL,whale,51,OA,L,error,pig,wc_event_error
2069522,31,retrieval_trial,2959,crab,calculator,ANIMAL,crab,52,OA,L,1,crab,1
2069522,32,retrieval_trial,2316,kitchen,horse,LOCATION,kitchen,37,AL,O,1,kitchen,1
2069522,33,retrieval_trial,2275,binoculars,car park,OBJECT,binoculars,44,LO,A,1,binoculars,1
2069522,34,retrieval_trial,8415,sheep,television,ANIMAL,mouse,53,OA,L,error,sheep,wc_event_error
2069522,35,retrieval_trial,3423,jigsaw,harbour,OBJECT,jigsaw,47,LO,A,1,jigsaw,1
2069522,36,retrieval_trial,7285,restaraunt,bee,LOCATION,lake,38,AL,O,error,restaraunt,wc_event_error
2069522,37,retrieval_trial,6107,pig,screwdriver,ANIMAL,lobster,49,OA,L,error,pig,wc_event_error
2069522,38,retrieval_trial,7912,beach,rabbit,LOCATION,swimming pool,42,AL,O,error,beach,wc_event_error
2075946,3,retrieval_trial,4823.28999997117,giraffe,swimming pool,ANIMAL,rabbit,42,LA,O,error,giraffe,wc_event_error
2075946,4,retrieval_trial,4418.63999998895,meerkat,scissors,LOCATION,casino,43,OL,A,error,meerkat,be_cat_error
2075946,5,retrieval_trial,3489.25000004238,flower,ostrich,OBJECT,flower,50,AO,L,1,flower,1
2075946,6,retrieval_trial,9989.25099999999,torch,beaver,OBJECT,hammer,54,AO,L,error,torch,wc_event_error
2075946,7,retrieval_trial,4857.83499997342,map,crab,OBJECT,calculator,52,AO,L,error,map,wc_event_error
2075946,8,retrieval_trial,6448.22500000009,hat,whale,OBJECT,necklace,51,AO,L,error,hat,wc_event_error
2075946,9,retrieval_trial,7506.45499996608,basement,jacket,LOCATION,windmill,48,OL,A,error,basement,wc_event_error
2075946,10,retrieval_trial,5884.94999997783,garden,toothbrush,LOCATION,cave,46,OL,A,error,garden,wc_event_error
2075946,11,retrieval_trial,5598.06499996921,duck,kitchen,ANIMAL,horse,37,LA,O,error,duck,wc_event_error
2075946,12,retrieval_trial,4580.27500001481,squirrel,supermarket,ANIMAL,squirrel,39,LA,O,1,squirrel,1
2075946,13,retrieval_trial,2768.27499998035,elephant,cinema,ANIMAL,elephant,40,LA,O,1,elephant,1
2075946,14,retrieval_trial,5509.62000002619,balloon,mouse,OBJECT,television,53,AO,L,error,balloon,wc_event_error
2075946,15,retrieval_trial,4018.78499996383,flamingo,pen,LOCATION,nightclub,45,OL,A,error,flamingo,be_cat_error
2075946,16,retrieval_trial,5108.85000001872,cat,lake,ANIMAL,bee,38,LA,O,error,cat,wc_event_error
2075946,17,retrieval_trial,3986.16999998922,lake,jigsaw,LOCATION,harbour,47,OL,A,error,lake,wc_event_error
2075946,18,retrieval_trial,6802.77999996906,watch,lobster,OBJECT,screwdriver,49,AO,L,error,watch,error
2075946,19,retrieval_trial,6119.2550000269,horse,library,ANIMAL,penguin,41,LA,O,error,horse,wc_event_error
2075946,20,retrieval_trial,2419.40000001341,hippo,binoculars,LOCATION,car park,44,OL,A,error,hippo,we_cat_error
2075946,21,retrieval_trial,4614.75999996765,waterfall,squirrel,LOCATION,supermarket,39,AL,O,error,waterfall,wc_event_error
2075946,22,retrieval_trial,4835.72500001173,badger,nightclub,OBJECT,pen,45,LO,A,error,badger,be_cat_error
2075946,23,retrieval_trial,3144.25000001211,scissors,casino,OBJECT,scissors,43,LO,A,1,scissors,1
2075946,24,retrieval_trial,4347.48499997659,calculator,penguin,LOCATION,library,41,AL,O,error,calculator,be_cat_error
2075946,25,retrieval_trial,8490.90999999316,cat,screwdriver,ANIMAL,lobster,49,OA,L,error,cat,wc_event_error
2075946,26,retrieval_trial,4710.41500003776,mouse,hammer,ANIMAL,beaver,54,OA,L,error,mouse,wc_event_error
2075946,27,retrieval_trial,3598.53999997722,toothbrush,cave,OBJECT,toothbrush,46,LO,A,1,toothbrush,1
2075946,28,retrieval_trial,6361.59500002395,lake,bee,LOCATION,lake,38,AL,O,1,lake,1
2075946,29,retrieval_trial,2978.79500000272,mug,windmill,OBJECT,jacket,48,LO,A,error,mug,wc_event_error
2075946,30,retrieval_trial,2983.58000000007,squirrel,television,ANIMAL,mouse,53,OA,L,error,squirrel,wc_event_error
2075946,31,retrieval_trial,2785.85499996552,whale,necklace,ANIMAL,whale,51,OA,L,1,whale,1
2075946,32,retrieval_trial,2511.34500000626,badger,calculator,ANIMAL,crab,52,OA,L,error,badger,wc_event_error
2075946,33,retrieval_trial,9982.98900000006,elephant,flower,ANIMAL,ostrich,50,OA,L,error,elephan,wc_event_error
2075946,34,retrieval_trial,3361.40500003239,cinema,elephant,LOCATION,cinema,40,AL,O,1,cinema,1
2075946,35,retrieval_trial,2992.11999995168,hippo,car park,OBJECT,binoculars,44,LO,A,error,hippo,we_cat_error
2075946,36,retrieval_trial,9978.08500000008,theatre,horse,LOCATION,kitchen,37,AL,O,error,theatr,wc_event_error
2075946,37,retrieval_trial,6423.25500003062,basement,rabbit,LOCATION,swimming pool,42,AL,O,error,baseent,wc_event_error
2075946,38,retrieval_trial,5949.41999996081,ostruch,harbour,OBJECT,jigsaw,47,LO,A,error,ostruch,be_cat_error
2069372,3,retrieval_trial,5646.25499991234,book,giraffe,OBJECT,clock,6,AO,L,error,book,wc_event_error
2069372,4,retrieval_trial,6500.8899999084,cinema,trophy,LOCATION,university,18,OL,A,error,cinema,wc_event_error
2069372,5,retrieval_trial,3954.33999993838,cafe,ring,LOCATION,living room,15,OL,A,error,cafe,wc_event_error
2069372,6,retrieval_trial,1870.9899999667,kangaroo,treehouse,ANIMAL,kangaroo,7,LA,O,1,kangaroo,1
2069372,7,retrieval_trial,5729.88500003703,vase,spider,OBJECT,carrot,5,AO,L,error,vase,wc_event_error
2069372,8,retrieval_trial,8114.94999995921,owl,glasses,LOCATION,railway station,14,OL,A,error,owl,error
2069372,9,retrieval_trial,3428.65499993786,camel,waterfall,ANIMAL,zebra,8,LA,O,error,camel,wc_event_error
2069372,10,retrieval_trial,6541.87499999534,bird,lighthouse,ANIMAL,bear,12,LA,O,error,bird,error
2069372,11,retrieval_trial,4103.11999998521,jumprope,sheep,OBJECT,skipping rope,3,AO,L,1,jumprope,1
2069372,12,retrieval_trial,2179.50500000734,ring,fish,OBJECT,dice,1,AO,L,error,ring,wc_event_error
2069372,13,retrieval_trial,1882.68499996047,mouse,statue,LOCATION,cruise ship,16,OL,A,error,mouse,be_cat_error
2069372,14,retrieval_trial,6723.17999997176,knitting,cow,OBJECT,backpack,4,AO,L,error,knitting,error
2069372,15,retrieval_trial,3791.5450000437,lobster,bank,ANIMAL,butterfly,9,LA,O,error,lobster,wc_event_error
2069372,16,retrieval_trial,4121.48500001058,goat,garden,ANIMAL,goat,11,LA,O,1,goat,1
2069372,17,retrieval_trial,3642.42000004742,woods,chainsaw,LOCATION,gym,17,OL,A,error,woods,error
2069372,18,retrieval_trial,2235.11999996845,flamingo,hairdressers,ANIMAL,flamingo,10,LA,O,1,flamingo,1
2069372,19,retrieval_trial,5407.02499996405,sewingkit,snake,OBJECT,kite,2,AO,L,error,sewingkit,error
2069372,20,retrieval_trial,3874.23499999568,beach,ball,LOCATION,forest,13,OL,A,error,beach,wc_event_error
2069372,21,retrieval_trial,3043.74500003178,garden,goat,LOCATION,garden,11,AL,O,1,garden,1
2069372,22,retrieval_trial,3396.76000003237,ant,clock,ANIMAL,giraffe,6,OA,L,error,ant,wc_event_error
2069372,23,retrieval_trial,1719.80000007898,spider,carrot,ANIMAL,spider,5,OA,L,1,spider,1
2069372,24,retrieval_trial,4778.1149999937,camera,living room,OBJECT,ring,15,LO,A,error,camera,wc_event_error
2069372,25,retrieval_trial,1385.07999991998,sheep,skipping rope,ANIMAL,sheep,3,OA,L,1,sheep,1
2069372,26,retrieval_trial,2396.9250000082,keys,railway station,OBJECT,glasses,14,LO,A,error,keys,wc_event_error
2069372,27,retrieval_trial,2274.19999998529,statue,cruise ship,OBJECT,statue,16,LO,A,1,statue,1
2069372,28,retrieval_trial,3342.59500005282,treehouse,kangaroo,LOCATION,treehouse,7,AL,O,1,treehouse,1
2069372,29,retrieval_trial,2416.54000000563,trophy,university,OBJECT,trophy,18,LO,A,1,trophy,1
2069372,30,retrieval_trial,2183.14500001725,hairdressers,flamingo,LOCATION,hairdressers,10,AL,O,1,hairdressers,1
2069372,31,retrieval_trial,1699.76999994833,fish,dice,ANIMAL,fish,1,OA,L,1,fish,1
2069372,32,retrieval_trial,5075.55499998853,bedroom,butterfly,LOCATION,bank,9,AL,O,error,bedroom,wc_event_error
2069372,33,retrieval_trial,1552.54000006244,campsite,bear,LOCATION,lighthouse,12,AL,O,error,campsite,wc_event_error
2069372,34,retrieval_trial,1695.89999993332,cow,backpack,ANIMAL,cow,4,OA,L,1,cow,1
2069372,35,retrieval_trial,4255.93500002287,shoe,gym,OBJECT,chainsaw,17,LO,A,error,shoes,wc_event_error
2069372,36,retrieval_trial,1514.73499997519,waterfall,zebra,LOCATION,waterfall,8,AL,O,1,waterfall,1
2069372,37,retrieval_trial,1453.31499993335,snake,kite,ANIMAL,snake,2,OA,L,1,snake,1
2069372,38,retrieval_trial,5056.21000006795,keys,forest,OBJECT,ball,13,LO,A,error,keys,wc_event_error
2075952,3,retrieval_trial,5093.72499999881,mug,spider,OBJECT,carrot,5,AO,L,error,mug,wc_event_error
2075952,4,retrieval_trial,6121.36000000464,kangaroo,treehouse,ANIMAL,kangaroo,7,LA,O,1,kangaroo,1
2075952,5,retrieval_trial,5280.65499999502,mug,sheep,OBJECT,skipping rope,3,AO,L,error,mug,wc_event_error
2075952,6,retrieval_trial,7763.95500000217,pig,glasses,LOCATION,railway station,14,OL,A,error,pig,we_cat_error
2075952,7,retrieval_trial,7538.71999999683,glasses,fish,OBJECT,dice,1,AO,L,error,glasses,wc_event_error
2075952,8,retrieval_trial,6882.22499999392,tortoise,garden,ANIMAL,goat,11,LA,O,error,tortoise,wc_event_error
2075952,9,retrieval_trial,4314.46000000869,lounge,ring,LOCATION,living room,15,OL,A,1,lounge,1
2075952,10,retrieval_trial,8689.41500000074,garage,ball,LOCATION,forest,13,OL,A,error,garage,wc_event_error
2075952,11,retrieval_trial,2358.5599999933,university,trophy,LOCATION,university,18,OL,A,1,university,1
2075952,12,retrieval_trial,3344.64499999012,zebra,waterfall,ANIMAL,zebra,8,LA,O,1,zebra,1
2075952,13,retrieval_trial,7294.04499998782,keys,giraffe,OBJECT,clock,6,AO,L,error,keys,wc_event_error
2075952,14,retrieval_trial,5854.4200000033,pig,lighthouse,ANIMAL,bear,12,LA,O,error,pig,wc_event_error
2075952,15,retrieval_trial,7181.89000000712,frog,bank,ANIMAL,butterfly,9,LA,O,error,frog,wc_event_error
2075952,16,retrieval_trial,6626.62999999884,hat,cow,OBJECT,backpack,4,AO,L,error,hat,wc_event_error
2075952,17,retrieval_trial,7299.70999999205,camel,hairdressers,ANIMAL,flamingo,10,LA,O,error,camel,wc_event_error
2075952,18,retrieval_trial,4171.62500000268,park,statue,LOCATION,cruise ship,16,OL,A,error,park,wc_event_error
2075952,19,retrieval_trial,2872.21500001033,gym,chainsaw,LOCATION,gym,17,OL,A,1,gym,1
2075952,20,retrieval_trial,8034.40499999851,hat,snake,OBJECT,kite,2,AO,L,error,hat,wc_event_error
2075952,21,retrieval_trial,4130.19000001077,trophy,university,OBJECT,trophy,18,LO,A,1,trophy,1
2075952,22,retrieval_trial,3712.2049999889,giraffe,clock,ANIMAL,giraffe,6,OA,L,1,giraffe,1
2075952,23,retrieval_trial,1338.39000000444,elephant,backpack,ANIMAL,cow,4,OA,L,error,elephant,wc_event_error
2075952,24,retrieval_trial,4113.29999999725,kitchen,flamingo,LOCATION,hairdressers,10,AL,O,error,kitchen,wc_event_error
2075952,25,retrieval_trial,1659.00500000862,shark,kite,ANIMAL,snake,2,OA,L,error,shark,wc_event_error
2075952,26,retrieval_trial,9985.62700000009,k,bear,LOCATION,lighthouse,12,AL,O,error,k,error
2075952,27,retrieval_trial,6327.77999999234,bank,kangaroo,LOCATION,treehouse,7,AL,O,error,bank,wc_event_error
2075952,28,retrieval_trial,3654.96500000893,fish,dice,ANIMAL,fish,1,OA,L,1,fish,1
2075952,29,retrieval_trial,2718.71000000089,ring,living room,OBJECT,ring,15,LO,A,1,ring,1
2075952,30,retrieval_trial,2389.45000000228,chainsaw,gym,OBJECT,chainsaw,17,LO,A,1,chainsaw,1
2075952,31,retrieval_trial,7406.69500001241,bank,butterfly,LOCATION,bank,9,AL,O,1,bank,1
2075952,32,retrieval_trial,3335.92500000657,garden,goat,LOCATION,garden,11,AL,O,1,garden,1
2075952,33,retrieval_trial,2069.46500000777,sheep,skipping rope,ANIMAL,sheep,3,OA,L,1,sheep,1
2075952,34,retrieval_trial,2859.4049999956,waterfall,zebra,LOCATION,waterfall,8,AL,O,1,waterfall,1
2075952,35,retrieval_trial,4715.59499998693,mouse,carrot,ANIMAL,spider,5,OA,L,error,mouse,wc_event_error
2075952,36,retrieval_trial,1889.89500000002,ball,forest,OBJECT,ball,13,LO,A,1,ball,1
2075952,37,retrieval_trial,2173.535000009,statue,cruise ship,OBJECT,statue,16,LO,A,1,statue,1
2075952,38,retrieval_trial,2192.08499998786,glasses,railway station,OBJECT,glasses,14,LO,A,1,glasses,1
2070024,3,retrieval_trial,9976.65300000005,NA,dice,LOCATION,theatre,1,OL,A,error,NA,miss
2070024,4,retrieval_trial,2868.8700000057,tortoise,living room,ANIMAL,monkey,15,LA,O,error,tortoise,wc_event_error
2070024,5,retrieval_trial,9976.56199999998,tre,kangaroo,OBJECT,book,7,AO,L,error,tre,we_cat_error
2070024,6,retrieval_trial,4432.55999998655,cup,bear,OBJECT,mug,12,AO,L,1,cup,1
2070024,7,retrieval_trial,9976.467,NA,goat,OBJECT,camera,11,AO,L,error,NA,miss
2070024,8,retrieval_trial,9976.64299999998,NA,gym,ANIMAL,badger,17,LA,O,error,NA,miss
2070024,9,retrieval_trial,5479.44999998435,binoculars,zebra,OBJECT,ice cream,8,AO,L,error,binoculars,wc_event_error
2070024,10,retrieval_trial,7751.96999998298,NA,clock,LOCATION,mountain,6,OL,A,error,NA,miss
2070024,11,retrieval_trial,5185.78499997966,classroom,kite,LOCATION,classroom,2,OL,A,1,classroom,1
2070024,12,retrieval_trial,6898.47500005271,meerkat,railway station,ANIMAL,pig,14,LA,O,error,meerkat,wc_event_error
2070024,13,retrieval_trial,5801.93000007421,NA,flamingo,OBJECT,box,10,AO,L,error,NA,miss
2070024,14,retrieval_trial,2792.32999996748,binoculars,butterfly,OBJECT,spoon,9,AO,L,error,binoculars,wc_event_error
2070024,15,retrieval_trial,8221.41999995802,NA,backpack,LOCATION,post office,4,OL,A,error,NA,miss
2070024,16,retrieval_trial,5038.05999993347,chicken,forest,ANIMAL,chicken,13,LA,O,1,chicken,1
2070024,17,retrieval_trial,3492.02500004321,circus,carrot,LOCATION,circus,5,OL,A,1,circus,1
2070024,18,retrieval_trial,3940.64499996603,wolf,university,ANIMAL,wolf,18,LA,O,1,wolf,1
2070024,19,retrieval_trial,4769.44000006188,hamster,cruise ship,ANIMAL,hamster,16,LA,O,1,hamster,1
2070024,20,retrieval_trial,9976.62199999997,NA,skipping rope,LOCATION,church,3,OL,A,error,NA,miss
2070024,21,retrieval_trial,1796.56500008423,bear,mug,ANIMAL,bear,12,OA,L,1,bear,1
2070024,22,retrieval_trial,2197.93500006199,snake,classroom,OBJECT,kite,2,LO,A,error,snake,we_cat_error
2070024,23,retrieval_trial,4623.38000000454,train station,pig,LOCATION,railway station,14,AL,O,1,train station,1
2070024,24,retrieval_trial,9976.64899999998,NA,mountain,OBJECT,clock,6,LO,A,error,NA,miss
2070024,25,retrieval_trial,2544.9400000507,zebra,ice cream,ANIMAL,zebra,8,OA,L,1,zebra,1
2070024,26,retrieval_trial,8576.3600000646,tortoise,box,ANIMAL,flamingo,10,OA,L,error,tortoise,wc_event_error
2070024,27,retrieval_trial,1871.41499994323,university,wolf,LOCATION,university,18,AL,O,1,university,1
2070024,28,retrieval_trial,2231.64999997243,forest,chicken,LOCATION,forest,13,AL,O,1,forest,1
2070024,29,retrieval_trial,1754.74499992561,gym,badger,LOCATION,gym,17,AL,O,1,gym,1
2070024,30,retrieval_trial,2433.2000000868,skipping rope,church,OBJECT,skipping rope,3,LO,A,1,skipping rope,1
2070024,31,retrieval_trial,4192.73999996949,whistle,theatre,OBJECT,dice,1,LO,A,error,whistle,wc_event_error
2070024,32,retrieval_trial,9976.65000000002,NA,monkey,LOCATION,living room,15,AL,O,error,NA,miss
2070024,33,retrieval_trial,2838.31500005908,cruise ship,hamster,LOCATION,cruise ship,16,AL,O,1,cruise ship,1
2070024,34,retrieval_trial,2220.15499998815,carrot,circus,OBJECT,carrot,5,LO,A,1,carrot,1
2070024,35,retrieval_trial,9976.63300000003,NA,camera,ANIMAL,goat,11,OA,L,error,NA,miss
2070024,36,retrieval_trial,2911.5949999541,backpack,post office,OBJECT,backpack,4,LO,A,1,backpack,1
2070024,37,retrieval_trial,7129.00999991689,peacock,book,ANIMAL,kangaroo,7,OA,L,error,peacock,wc_event_error
2070024,38,retrieval_trial,2787.74999990128,butterfly,spoon,ANIMAL,butterfly,9,OA,L,1,butterfly,1
2075950,3,retrieval_trial,3764.11499999813,cat,gym,ANIMAL,badger,17,LA,O,error,cat,wc_event_error
2075950,4,retrieval_trial,4268.67000000493,hamster,cruise ship,ANIMAL,hamster,16,LA,O,1,hamster,1
2075950,5,retrieval_trial,7445.8650000015,kitchen,dice,LOCATION,theatre,1,OL,A,error,kitchen,wc_event_error
2075950,6,retrieval_trial,7406.00999999879,lake,butterfly,OBJECT,spoon,9,AO,L,error,lake,be_cat_error
2075950,7,retrieval_trial,7007.86499999958,pig,railway station,ANIMAL,pig,14,LA,O,1,pig,1
2075950,8,retrieval_trial,8208.53999999963,dog,forest,ANIMAL,chicken,13,LA,O,error,dog,wc_event_error
2075950,9,retrieval_trial,8836.56999999948,cat,living room,ANIMAL,monkey,15,LA,O,error,cat,wc_event_error
2075950,10,retrieval_trial,4058.99499999936,camera,goat,OBJECT,camera,11,AO,L,1,camera,1
2075950,11,retrieval_trial,6745.78499999922,classroom,clock,LOCATION,mountain,6,OL,A,error,classroom,wc_event_error
2075950,12,retrieval_trial,6559.20999999938,spoon,bear,OBJECT,mug,12,AO,L,error,spoon,wc_event_error
2075950,13,retrieval_trial,7416.59999999683,glasses,flamingo,OBJECT,box,10,AO,L,error,glasses,wc_event_error
2075950,14,retrieval_trial,7819.95999999344,garden,skipping rope,LOCATION,church,3,OL,A,error,garden,wc_event_error
2075950,15,retrieval_trial,8342.65500000026,fox,university,ANIMAL,wolf,18,LA,O,error,fox,wc_event_error
2075950,16,retrieval_trial,2771.02500000189,circus,carrot,LOCATION,circus,5,OL,A,1,circus,1
2075950,17,retrieval_trial,4904.72000000579,classroom,kite,LOCATION,classroom,2,OL,A,1,classroom,1
2075950,18,retrieval_trial,6414.20500000101,ball,kangaroo,OBJECT,book,7,AO,L,error,ball,wc_event_error
2075950,19,retrieval_trial,7498.11999999662,carrot,zebra,OBJECT,ice cream,8,AO,L,error,carrot,wc_event_error
2075950,20,retrieval_trial,3491.34500000218,post office,backpack,LOCATION,post office,4,OL,A,1,post office,1
2075950,21,retrieval_trial,7352.58500000066,bee,mug,ANIMAL,bear,12,OA,L,error,bee,wc_event_error
2075950,22,retrieval_trial,8169.53999999538,house,hamster,LOCATION,cruise ship,16,AL,O,error,house,error
2075950,23,retrieval_trial,6481.85999999987,carrot,circus,OBJECT,carrot,5,LO,A,1,carrot,1
2075950,24,retrieval_trial,7998.9200000054,library,wolf,LOCATION,university,18,AL,O,error,library,wc_event_error
2075950,25,retrieval_trial,6049.18499999621,house,monkey,LOCATION,living room,15,AL,O,error,house,error
2075950,26,retrieval_trial,8282.10000000382,cow,ice cream,ANIMAL,zebra,8,OA,L,error,cow,wc_event_error
2075950,27,retrieval_trial,8224.99500000407,glasses,mountain,OBJECT,clock,6,LO,A,error,glasses,wc_event_error
2075950,28,retrieval_trial,6220.39999999828,butterfly,spoon,ANIMAL,butterfly,9,OA,L,1,butterfly,1
2075950,29,retrieval_trial,7790.89999999991,kite,classroom,OBJECT,kite,2,LO,A,1,kite,1
2075950,30,retrieval_trial,9976.90500000003,NA,camera,ANIMAL,goat,11,OA,L,error,NA,miss
2075950,31,retrieval_trial,7944.28000000329,keys,theatre,OBJECT,dice,1,LO,A,error,key,wc_event_error
2075950,32,retrieval_trial,7415.05999999936,phone,church,OBJECT,skipping rope,3,LO,A,error,phone,wc_event_error
2075950,33,retrieval_trial,8590.45999999926,frog,book,ANIMAL,kangaroo,7,OA,L,error,frog,wc_event_error
2075950,34,retrieval_trial,2309.67999999854,railway station,pig,LOCATION,railway station,14,AL,O,1,railway station,1
2075950,35,retrieval_trial,8179.81499999575,jail,badger,LOCATION,gym,17,AL,O,error,jail,wc_event_error
2075950,36,retrieval_trial,7867.63000000059,park,chicken,LOCATION,forest,13,AL,O,error,park,wc_event_error
2075950,37,retrieval_trial,4469.55000000168,backpack,post office,OBJECT,backpack,4,LO,A,1,backpack,1
2075950,38,retrieval_trial,5546.94499999448,lion,box,ANIMAL,flamingo,10,OA,L,error,lion,wc_event_error
2076070,3,retrieval_trial,5339.35999998357,shovel,zebra,OBJECT,ice cream,8,AO,L,error,shovel,error
2076070,4,retrieval_trial,3810.05500000902,fox,university,ANIMAL,wolf,18,LA,O,error,fox,wc_event_error
2076070,5,retrieval_trial,3542.72500000661,hamster,cruise ship,ANIMAL,hamster,16,LA,O,1,hamster,1
2076070,6,retrieval_trial,1940.40999998106,sheep,skipping rope,LOCATION,church,3,OL,A,error,sheep,we_cat_error
2076070,7,retrieval_trial,3029.85500002978,mountain,clock,LOCATION,mountain,6,OL,A,1,mountain,1
2076070,8,retrieval_trial,4285.67500005011,basement,dice,LOCATION,theatre,1,OL,A,error,basement,wc_event_error
2076070,9,retrieval_trial,9993.87800000003,NA,forest,ANIMAL,chicken,13,LA,O,error,NA,miss
2076070,10,retrieval_trial,5987.85999999382,rat,gym,ANIMAL,badger,17,LA,O,error,rat,error
2076070,11,retrieval_trial,9993.84100000001,NA,living room,ANIMAL,monkey,15,LA,O,error,NA,miss
2076070,12,retrieval_trial,8162.39000001224,map,flamingo,OBJECT,box,10,AO,L,error,map,wc_event_error
2076070,13,retrieval_trial,5724.48000003351,mug,bear,OBJECT,mug,12,AO,L,1,mug,1
2076070,14,retrieval_trial,4722.49000001466,classroom,kite,LOCATION,classroom,2,OL,A,1,classroom,1
2076070,15,retrieval_trial,4097.70500002196,circus,carrot,LOCATION,circus,5,OL,A,1,circus,1
2076070,16,retrieval_trial,9993.87200000009,arva,railway station,ANIMAL,pig,14,LA,O,error,arva,error
2076070,17,retrieval_trial,9993.89900000009,trophy,goat,OBJECT,camera,11,AO,L,error,trophy,wc_event_error
2076070,18,retrieval_trial,7689.87000000197,park,backpack,LOCATION,post office,4,OL,A,error,park,wc_event_error
2076070,19,retrieval_trial,9993.91299999994,NA,kangaroo,OBJECT,book,7,AO,L,error,NA,miss
2076070,20,retrieval_trial,6520.80999995815,paper,butterfly,OBJECT,spoon,9,AO,L,error,paper,error
2076070,21,retrieval_trial,2605.93499999959,backpack,post office,OBJECT,backpack,4,LO,A,1,backpack,1
2076070,22,retrieval_trial,4016.40999998199,stadium,pig,LOCATION,railway station,14,AL,O,error,stadium,wc_event_error
2076070,23,retrieval_trial,9993.83700000006,kite,theatre,OBJECT,dice,1,LO,A,error,kite,wc_event_error
2076070,24,retrieval_trial,2171.83499998646,university,wolf,LOCATION,university,18,AL,O,1,university,1
2076070,25,retrieval_trial,2388.68500001263,flamingo,box,ANIMAL,flamingo,10,OA,L,1,flamingo,1
2076070,26,retrieval_trial,3426.01000005379,goat,camera,ANIMAL,goat,11,OA,L,1,goat,1
2076070,27,retrieval_trial,6204.03000002261,zebra,ice cream,ANIMAL,zebra,8,OA,L,1,zebra,1
2076070,28,retrieval_trial,4992.11500003003,crocodile,book,ANIMAL,kangaroo,7,OA,L,error,crocodile,wc_event_error
2076070,29,retrieval_trial,8817.5400000182,rat,circus,OBJECT,carrot,5,LO,A,error,rat,error
2076070,30,retrieval_trial,5474.38999998849,butterfly,spoon,ANIMAL,butterfly,9,OA,L,1,butterfly,1
2076070,31,retrieval_trial,3139.71999997739,clock,mountain,OBJECT,clock,6,LO,A,1,clock,1
2076070,32,retrieval_trial,5316.55500002671,jumprope,church,OBJECT,skipping rope,3,LO,A,1,jumprope,1
2076070,33,retrieval_trial,1759.36999998521,bear,mug,ANIMAL,bear,12,OA,L,1,bear,1
2076070,34,retrieval_trial,2644.67499998864,kite,classroom,OBJECT,kite,2,LO,A,1,kite,1
2076070,35,retrieval_trial,3487.11499996716,cruise ship,hamster,LOCATION,cruise ship,16,AL,O,1,cruise ship,1
2076070,36,retrieval_trial,2321.59000000684,forest,chicken,LOCATION,forest,13,AL,O,1,forest,1
2076070,37,retrieval_trial,2088.30000000307,living room,monkey,LOCATION,living room,15,AL,O,1,living room,1
2076070,38,retrieval_trial,5244.98999997741,stadium,badger,LOCATION,gym,17,AL,O,error,stadium,wc_event_error
2069370,3,retrieval_trial,5793.23500022292,snake,bedroom,ANIMAL,tortoise,32,LA,O,error,snake,wc_event_error
2069370,4,retrieval_trial,5130.31500019133,sock,platypus,OBJECT,sock,27,AO,L,1,sock,1
2069370,5,retrieval_trial,9139.29000031203,woods,violin,LOCATION,garage,20,OL,A,error,woods,error
2069370,6,retrieval_trial,6399.77500028908,library,lamp,LOCATION,cafe,22,OL,A,error,library,wc_event_error
2069370,7,retrieval_trial,4350.45500006527,beach,whisk,LOCATION,aquarium,21,OL,A,error,beach,wc_event_error
2069370,8,retrieval_trial,6376.48000009358,bike,camel,OBJECT,bike,28,AO,L,1,bike,1
2069370,9,retrieval_trial,4493.31999989226,balcony,wallet,LOCATION,balcony,23,OL,A,1,balcony,1
2069370,10,retrieval_trial,5040.29999999329,bear,hospital,ANIMAL,fox,33,LA,O,error,bear,wc_event_error
2069370,11,retrieval_trial,4924.0399999544,giraffe,city,ANIMAL,frog,36,LA,O,error,giraffe,wc_event_error
2069370,12,retrieval_trial,6002.10000015795,hippo,jail,ANIMAL,cat,34,LA,O,error,hippo,wc_event_error
2069370,13,retrieval_trial,6501.13000022247,butterfly,park,ANIMAL,lion,31,LA,O,error,butterfly,wc_event_error
2069370,14,retrieval_trial,5660.5250001885,shirt,dragonfly,OBJECT,headphones,25,AO,L,error,shirt,error
2069370,15,retrieval_trial,6504.35499986634,brad,tiger,OBJECT,cake,30,AO,L,error,brad,error
2069370,16,retrieval_trial,4939.13500010967,office,handbag,LOCATION,stadium,19,OL,A,error,office,error
2069370,17,retrieval_trial,7934.37500018626,fly,bus stop,ANIMAL,crocodile,35,LA,O,error,fly,error
2069370,18,retrieval_trial,7263.59000010416,shop,vase,LOCATION,bakery,24,OL,A,error,shop,error
2069370,19,retrieval_trial,4674.52999996021,book,reindeer,OBJECT,paintbrush,29,AO,L,error,book,wc_event_error
2069370,20,retrieval_trial,5755.5549996905,hat,bat,OBJECT,bottle,26,AO,L,error,hat,wc_event_error
2069370,21,retrieval_trial,4884.55500034615,bank,cat,LOCATION,jail,34,AL,O,error,bank,wc_event_error
2069370,22,retrieval_trial,3179.91499975324,park,fox,LOCATION,hospital,33,AL,O,error,park,wc_event_error
2069370,23,retrieval_trial,3975.2650000155,camel,bike,ANIMAL,camel,28,OA,L,1,camel,1
2069370,24,retrieval_trial,4906.48000035435,shark,stadium,OBJECT,handbag,19,LO,A,error,shark,be_cat_error
2069370,25,retrieval_trial,2190.31499978155,dragonfly,headphones,ANIMAL,dragonfly,25,OA,L,1,dragonfly,1
2069370,26,retrieval_trial,3086.26000024378,park,lion,LOCATION,park,31,AL,O,1,park,1
2069370,27,retrieval_trial,7319.29499981925,sheep,sock,ANIMAL,platypus,27,OA,L,error,sheep,wc_event_error
2069370,28,retrieval_trial,4888.72499996796,stadium,crocodile,LOCATION,bus stop,35,AL,O,error,stadium,wc_event_error
2069370,29,retrieval_trial,5481.4900001511,flowers,garage,OBJECT,violin,20,LO,A,error,flowers,wc_event_error
2069370,30,retrieval_trial,4293.16500015557,vase,bakery,OBJECT,vase,24,LO,A,1,vase,1
2069370,31,retrieval_trial,1992.58499965072,lion,cake,ANIMAL,tiger,30,OA,L,error,lion,wc_event_error
2069370,32,retrieval_trial,4961.98499994352,binoculars,aquarium,OBJECT,whisk,21,LO,A,error,binoculars,wc_event_error
2069370,33,retrieval_trial,5051.47999990731,city,frog,LOCATION,city,36,AL,O,1,city,1
2069370,34,retrieval_trial,2626.72499986365,wallet,balcony,OBJECT,wallet,23,LO,A,1,wallet,1
2069370,35,retrieval_trial,6309.97000029311,shark,paintbrush,ANIMAL,reindeer,29,OA,L,error,shark,wc_event_error
2069370,36,retrieval_trial,3127.98500014469,bedroom,tortoise,LOCATION,bedroom,32,AL,O,1,bedroom,1
2069370,37,retrieval_trial,1606.44500004128,vase,cafe,OBJECT,lamp,22,LO,A,error,vase,wc_event_error
2069370,38,retrieval_trial,1669.03500026092,bat,bottle,ANIMAL,bat,26,OA,L,1,bat,1
2075953,3,retrieval_trial,4496.61499998183,cake,tiger,OBJECT,cake,30,AO,L,1,cake,1
2075953,4,retrieval_trial,2830.17999998992,bottle,bat,OBJECT,bottle,26,AO,L,1,bottle,1
2075953,5,retrieval_trial,4448.0999999796,coat,reindeer,OBJECT,paintbrush,29,AO,L,error,coat,error
2075953,6,retrieval_trial,5941.28500000807,bedroom,violin,LOCATION,garage,20,OL,A,error,bedroom,wc_event_error
2075953,7,retrieval_trial,6983.28000001493,basement,vase,LOCATION,bakery,24,OL,A,error,basement,wc_event_error
2075953,8,retrieval_trial,5914.66499998933,cat,jail,ANIMAL,cat,34,LA,O,1,cat,1
2075953,9,retrieval_trial,9983.25999999995,NA,hospital,ANIMAL,fox,33,LA,O,error,NA,miss
2075953,10,retrieval_trial,7225.93499999493,hippo,bedroom,ANIMAL,tortoise,32,LA,O,error,hippo,wc_event_error
2075953,11,retrieval_trial,5740.46500000986,shoe,platypus,OBJECT,sock,27,AO,L,error,shoe,wc_event_error
2075953,12,retrieval_trial,4983.67499999586,theatre,handbag,LOCATION,stadium,19,OL,A,error,theatre,wc_event_error
2075953,13,retrieval_trial,5512.99499999732,crocodile,park,ANIMAL,lion,31,LA,O,error,crocodile,wc_event_error
2075953,14,retrieval_trial,4741.35999998543,beach,whisk,LOCATION,aquarium,21,OL,A,error,beach,wc_event_error
2075953,15,retrieval_trial,5520.12999998988,squirrel,city,ANIMAL,frog,36,LA,O,error,squirrel,wc_event_error
2075953,16,retrieval_trial,3927.01499999384,headphones,dragonfly,OBJECT,headphones,25,AO,L,1,headphone,1
2075953,17,retrieval_trial,6619.01500000386,beach,wallet,LOCATION,balcony,23,OL,A,error,beach,wc_event_error
2075953,18,retrieval_trial,5575.19499998307,crocodile,bus stop,ANIMAL,crocodile,35,LA,O,1,crocodile,1
2075953,19,retrieval_trial,4139.83499997994,hat,camel,OBJECT,bike,28,AO,L,error,hat,wc_event_error
2075953,20,retrieval_trial,5430.81000001985,beach,lamp,LOCATION,cafe,22,OL,A,error,beach,wc_event_error
2075953,21,retrieval_trial,3067.10499999463,park,lion,LOCATION,park,31,AL,O,1,park,1
2075953,22,retrieval_trial,7673.9649999945,crocodile,headphones,ANIMAL,dragonfly,25,OA,L,error,crocodile,wc_event_error
2075953,23,retrieval_trial,7856.32999998052,llmp,garage,OBJECT,violin,20,LO,A,error,llmp,wc_event_error
2075953,24,retrieval_trial,9983.24800000002,hippo,cake,ANIMAL,tiger,30,OA,L,error,hippo,wc_event_error
2075953,25,retrieval_trial,9983.21899999992,cabinet,bakery,OBJECT,vase,24,LO,A,error,cabinet,error
2075953,26,retrieval_trial,2170.4150000005,platypus,sock,ANIMAL,platypus,27,OA,L,1,platypu,1
2075953,27,retrieval_trial,3425.95499998424,jail,cat,LOCATION,jail,34,AL,O,1,jail,1
2075953,28,retrieval_trial,7597.54999997676,cat,bike,ANIMAL,camel,28,OA,L,error,cat,wc_event_error
2075953,29,retrieval_trial,2324.21500000055,hospital,fox,LOCATION,hospital,33,AL,O,1,hospital,1
2075953,30,retrieval_trial,2681.00000001141,city,frog,LOCATION,city,36,AL,O,1,city,1
2075953,31,retrieval_trial,1849.98999998788,wallet,balcony,OBJECT,wallet,23,LO,A,1,wallet,1
2075953,32,retrieval_trial,2943.04000001284,bus stop#,crocodile,LOCATION,bus stop,35,AL,O,1,bus stop#,1
2075953,33,retrieval_trial,7654.26499999012,shoe,cafe,OBJECT,lamp,22,LO,A,error,shoe,wc_event_error
2075953,34,retrieval_trial,8380.33499999437,mask,aquarium,OBJECT,whisk,21,LO,A,error,mask,error
2075953,35,retrieval_trial,7893.20000002044,bba,stadium,OBJECT,handbag,19,LO,A,error,bba,error
2075953,36,retrieval_trial,5767.0849999995,theatre,tortoise,LOCATION,bedroom,32,AL,O,error,theatre,wc_event_error
2075953,37,retrieval_trial,6005.57000000845,peacock,paintbrush,ANIMAL,reindeer,29,OA,L,error,peacock,wc_event_error
2075953,38,retrieval_trial,6074.82999999775,squirrel,bottle,ANIMAL,bat,26,OA,L,error,squirrel,wc_event_error
2069369,3,retrieval_trial,2204.74999999895,aardvark,nightclub,ANIMAL,aardvark,45,LA,O,1,aardvark,1
2069369,4,retrieval_trial,1710.33999999962,whale,necklace,LOCATION,vineyard,51,OL,A,error,whale,we_cat_error
2069369,5,retrieval_trial,6176.18500000029,bank,television,LOCATION,beach,53,OL,A,error,bank,wc_event_error
2069369,6,retrieval_trial,4420.38499999949,dog,car park,ANIMAL,hippo,44,LA,O,error,dog,wc_event_error
2069369,7,retrieval_trial,2626.72999999992,fox,windmill,ANIMAL,duck,48,LA,O,error,fox,wc_event_error
2069369,8,retrieval_trial,6110.88000000018,aquarium,screwdriver,LOCATION,factory,49,OL,A,error,aquarium,wc_event_error
2069369,9,retrieval_trial,7477.51000000065,spoon,elephant,OBJECT,shoe,40,AO,L,error,spoon,wc_event_error
2069369,10,retrieval_trial,1816.90499999968,crab,calculator,LOCATION,museum,52,OL,A,error,crab,we_cat_error
2069369,11,retrieval_trial,4326.29499999894,whistle,penguin,OBJECT,whistle,41,AO,L,1,whistle,1
2069369,12,retrieval_trial,3895.71000000066,supermarket,hammer,LOCATION,pharmacy,54,OL,A,error,supermarket,wc_event_error
2069369,13,retrieval_trial,3430.74999999953,camera,rabbit,OBJECT,balloon,42,AO,L,error,camera,wc_event_error
2069369,14,retrieval_trial,6378.68999999954,dog,cave,ANIMAL,dog,46,LA,O,1,dog,1
2069369,15,retrieval_trial,5551.2000000017,basement,flower,LOCATION,basement,50,OL,A,1,basement,1
2069369,16,retrieval_trial,7854.08499999903,hippo,harbour,ANIMAL,peacock,47,LA,O,error,hippo,wc_event_error
2069369,17,retrieval_trial,7098.45999999926,phone,horse,OBJECT,phone,37,AO,L,1,phone,1
2069369,18,retrieval_trial,1961.68000000028,elephant,casino,ANIMAL,octopus,43,LA,O,error,elephant,wc_event_error
2069369,19,retrieval_trial,4530.10499999986,drum,squirrel,OBJECT,drum,39,AO,L,1,drum,1
2069369,20,retrieval_trial,9096.02500000084,shoe,bee,OBJECT,candle,38,AO,L,error,shoe,wc_event_error
2069369,21,retrieval_trial,3636.16499999992,cave,dog,LOCATION,cave,46,AL,O,1,cave,1
2069369,22,retrieval_trial,4521.55999999924,nightclub,aardvark,LOCATION,nightclub,45,AL,O,1,nightclub,1
2069369,23,retrieval_trial,3544.78999999992,penguin,whistle,ANIMAL,penguin,41,OA,L,1,penguin,1
2069369,24,retrieval_trial,2161.33000000089,rabbit,balloon,ANIMAL,rabbit,42,OA,L,1,rabbit,1
2069369,25,retrieval_trial,8329.20999999985,book,basement,OBJECT,flower,50,LO,A,error,book,wc_event_error
2069369,26,retrieval_trial,2985.21500000067,calculator,museum,OBJECT,calculator,52,LO,A,1,calculator,1
2069369,27,retrieval_trial,2918.15999999922,car park,hippo,LOCATION,car park,44,AL,O,1,car park,1
2069369,28,retrieval_trial,2388.86000000092,squirrel,drum,ANIMAL,squirrel,39,OA,L,1,squirrel,1
2069369,29,retrieval_trial,1611.62499999953,screwdriver,factory,OBJECT,screwdriver,49,LO,A,1,screwdriver,1
2069369,30,retrieval_trial,1960.22500000068,elephant,shoe,ANIMAL,elephant,40,OA,L,1,elephant,1
2069369,31,retrieval_trial,1512.24999999977,bee,candle,ANIMAL,bee,38,OA,L,1,bee,1
2069369,32,retrieval_trial,7591.21500000043,zebra,beach,OBJECT,television,53,LO,A,error,zebra,be_cat_error
2069369,33,retrieval_trial,2226.24999999977,windmill,duck,LOCATION,windmill,48,AL,O,1,windmill,1
2069369,34,retrieval_trial,1607.79499999993,horse,phone,ANIMAL,horse,37,OA,L,1,horse,1
2069369,35,retrieval_trial,5221.7500000007,casino,octopus,LOCATION,casino,43,AL,O,1,casino,1
2069369,36,retrieval_trial,4126.2400000015,backpack,pharmacy,OBJECT,hammer,54,LO,A,error,backpack,wc_event_error
2069369,37,retrieval_trial,2125.35000000033,necklace,vineyard,OBJECT,necklace,51,LO,A,1,necklace,1
2069369,38,retrieval_trial,3292.3699999993,harbour,peacock,LOCATION,harbour,47,AL,O,1,harbour,1
2075961,3,retrieval_trial,1480.25500029325,NA,windmill,ANIMAL,duck,48,LA,O,error,NA,miss
2075961,4,retrieval_trial,3026.50999976322,pharmacy,hammer,LOCATION,pharmacy,54,OL,A,1,pharmacy,1
2075961,5,retrieval_trial,3989.06500032172,NA,rabbit,OBJECT,balloon,42,AO,L,error,NA,miss
2075961,6,retrieval_trial,6586.5899999626,meadow,necklace,LOCATION,vineyard,51,OL,A,error,meadow,error
2075961,7,retrieval_trial,5529.45999987423,whistle,penguin,OBJECT,whistle,41,AO,L,1,whistle,1
2075961,8,retrieval_trial,4004.80000022799,NA,squirrel,OBJECT,drum,39,AO,L,error,NA,miss
2075961,9,retrieval_trial,2037.00500028208,NA,bee,OBJECT,candle,38,AO,L,error,NA,miss
2075961,10,retrieval_trial,1411.64000006393,NA,harbour,ANIMAL,peacock,47,LA,O,error,NA,miss
2075961,11,retrieval_trial,1565.51499990746,NA,car park,ANIMAL,hippo,44,LA,O,error,NA,miss
2075961,12,retrieval_trial,1544.55999983475,NA,television,LOCATION,beach,53,OL,A,error,NA,miss
2075961,13,retrieval_trial,2445.18999988213,NA,cave,ANIMAL,dog,46,LA,O,error,NA,miss
2075961,14,retrieval_trial,1598.12999982387,NA,horse,OBJECT,phone,37,AO,L,error,NA,miss
2075961,15,retrieval_trial,4058.63999994472,basement,flower,LOCATION,basement,50,OL,A,1,basement,1
2075961,16,retrieval_trial,4203.03500024602,NA,elephant,OBJECT,shoe,40,AO,L,error,NA,miss
2075961,17,retrieval_trial,9989.07899999997,aardvark,casino,ANIMAL,octopus,43,LA,O,error,aardvark,wc_event_error
2075961,18,retrieval_trial,2192.30500003323,aardvark,nightclub,ANIMAL,aardvark,45,LA,O,1,aardvark,1
2075961,19,retrieval_trial,8728.86000014842,NA,calculator,LOCATION,museum,52,OL,A,error,NA,miss
2075961,20,retrieval_trial,3438.2250001654,store,screwdriver,LOCATION,factory,49,OL,A,error,store,error
2075961,21,retrieval_trial,4487.13999986649,elephant,candle,ANIMAL,bee,38,OA,L,error,elephant,wc_event_error
2075961,22,retrieval_trial,5180.21999998018,octopus,factory,OBJECT,screwdriver,49,LO,A,error,octopus,be_cat_error
2075961,23,retrieval_trial,5286.70499986038,house,duck,LOCATION,windmill,48,AL,O,error,house,error
2075961,24,retrieval_trial,3678.42999985442,casino,aardvark,LOCATION,nightclub,45,AL,O,error,casino,wc_event_error
2075961,25,retrieval_trial,3184.13499975577,waterfall,peacock,LOCATION,harbour,47,AL,O,error,waterfall,wc_event_error
2075961,26,retrieval_trial,2336.71500021592,necklace,vineyard,OBJECT,necklace,51,LO,A,1,necklace,1
2075961,27,retrieval_trial,7177.44000023231,bird,drum,ANIMAL,squirrel,39,OA,L,error,bird,error
2075961,28,retrieval_trial,2440.3300001286,octopus,whistle,ANIMAL,penguin,41,OA,L,error,octopus,wc_event_error
2075961,29,retrieval_trial,7675.36500003189,NA,balloon,ANIMAL,rabbit,42,OA,L,error,NA,miss
2075961,30,retrieval_trial,2080.6650002487,hammer,pharmacy,OBJECT,hammer,54,LO,A,1,hammer,1
2075961,31,retrieval_trial,3536.49499965832,NA,dog,LOCATION,cave,46,AL,O,error,NA,miss
2075961,32,retrieval_trial,3415.28999991715,casino,octopus,LOCATION,casino,43,AL,O,1,casino,1
2075961,33,retrieval_trial,2969.8450001888,flower,basement,OBJECT,flower,50,LO,A,1,flower,1
2075961,34,retrieval_trial,3950.99999988452,school,hippo,LOCATION,car park,44,AL,O,error,school,error
2075961,35,retrieval_trial,6162.84999996424,NA,phone,ANIMAL,horse,37,OA,L,error,NA,miss
2075961,36,retrieval_trial,1807.19000007957,elephant,shoe,ANIMAL,elephant,40,OA,L,1,elephant,1
2075961,37,retrieval_trial,4975.86499992758,candle,museum,OBJECT,calculator,52,LO,A,error,candle,wc_event_error
2075961,38,retrieval_trial,4055.02500012517,blanket,beach,OBJECT,television,53,LO,A,error,blanket,error
2069368,3,retrieval_trial,6424.11499999976,squirrel,drum,LOCATION,supermarket,39,OL,A,error,squirrel,we_cat_error
2069368,4,retrieval_trial,6667.89499999955,bus stop,phone,LOCATION,kitchen,37,OL,A,error,bus stop,wc_event_error
2069368,5,retrieval_trial,6913.64999999997,beaver,pharmacy,ANIMAL,beaver,54,LA,O,1,beaver,1
2069368,6,retrieval_trial,6530.20000000019,mug,aardvark,OBJECT,pen,45,AO,L,error,mug,wc_event_error
2069368,7,retrieval_trial,6756.95499999984,lion,whistle,LOCATION,library,41,OL,A,error,lion,be_cat_error
2069368,8,retrieval_trial,7864.08500000014,pen,dog,OBJECT,toothbrush,46,AO,L,error,pen,wc_event_error
2069368,9,retrieval_trial,7326.66000000021,shop,shoe,LOCATION,cinema,40,OL,A,error,shop,error
2069368,10,retrieval_trial,2940.67499999981,giraffe,vineyard,ANIMAL,whale,51,LA,O,error,giraffe,wc_event_error
2069368,11,retrieval_trial,4931.06499999971,beach,candle,LOCATION,lake,38,OL,A,error,beach,wc_event_error
2069368,12,retrieval_trial,5585.10999999999,handbag,duck,OBJECT,jacket,48,AO,L,error,handbag,wc_event_error
2069368,13,retrieval_trial,5468.22999999992,lion,museum,ANIMAL,crab,52,LA,O,error,lion,wc_event_error
2069368,14,retrieval_trial,2928.19999999984,snail,beach,ANIMAL,mouse,53,LA,O,error,snail,error
2069368,15,retrieval_trial,3676.19000000018,jigsaw,peacock,OBJECT,jigsaw,47,AO,L,1,jigsaw,1
2069368,16,retrieval_trial,6330.1449999999,zebra,basement,ANIMAL,ostrich,50,LA,O,error,zebra,wc_event_error
2069368,17,retrieval_trial,6159.67999999976,bus stop,balloon,LOCATION,swimming pool,42,OL,A,error,bus stop,wc_event_error
2069368,18,retrieval_trial,2891.92499999987,shoe,hippo,OBJECT,binoculars,44,AO,L,error,shoes,wc_event_error
2069368,19,retrieval_trial,5223.64999999991,snake,factory,ANIMAL,lobster,49,LA,O,error,snake,wc_event_error
2069368,20,retrieval_trial,3006.20500000019,scisscors,octopus,OBJECT,scissors,43,AO,L,1,scisscors,1
2069368,21,retrieval_trial,8346.51500000013,shop,lobster,LOCATION,factory,49,AL,O,error,shop,error
2069368,22,retrieval_trial,5335.45000000007,drum,supermarket,OBJECT,drum,39,LO,A,1,drum,1
2069368,23,retrieval_trial,1732.66500000004,pharmacy,beaver,LOCATION,pharmacy,54,AL,O,1,pharmacy,1
2069368,24,retrieval_trial,7803.89999999991,snake,lake,OBJECT,candle,38,LO,A,error,snake,be_cat_error
2069368,25,retrieval_trial,5264.65499999991,duck,jacket,ANIMAL,duck,48,OA,L,1,duck,1
2069368,26,retrieval_trial,4088.44999999972,lake,crab,LOCATION,museum,52,AL,O,error,lake,wc_event_error
2069368,27,retrieval_trial,1731.02500000002,hippo,cinema,OBJECT,shoe,40,LO,A,error,hippo,be_cat_error
2069368,28,retrieval_trial,4695.41000000027,beach,mouse,LOCATION,beach,53,AL,O,1,beach,1
2069368,29,retrieval_trial,3114.7849999998,balloon,swimming pool,OBJECT,balloon,42,LO,A,1,baloon,1
2069368,30,retrieval_trial,2923.18000000017,vineyard,whale,LOCATION,vineyard,51,AL,O,1,vineyard,1
2069368,31,retrieval_trial,6818.26000000001,pig,pen,ANIMAL,aardvark,45,OA,L,error,pig,wc_event_error
2069368,32,retrieval_trial,4198.15999999992,basement,ostrich,LOCATION,basement,50,AL,O,1,basement,1
2069368,33,retrieval_trial,3847.19999999972,octopus,scissors,ANIMAL,octopus,43,OA,L,1,octopus,1
2069368,34,retrieval_trial,7435.04499999981,map,kitchen,OBJECT,phone,37,LO,A,error,map,wc_event_error
2069368,35,retrieval_trial,2421.87999999989,whistle,library,OBJECT,whistle,41,LO,A,1,whistle,1
2069368,36,retrieval_trial,2243.72499999974,peacock,jigsaw,ANIMAL,peacock,47,OA,L,1,peacock,1
2069368,37,retrieval_trial,2996.09000000008,dog,toothbrush,ANIMAL,dog,46,OA,L,1,dog,1
2069368,38,retrieval_trial,4528.76500000001,hippo,binoculars,ANIMAL,hippo,44,OA,L,1,hippo,1
2075959,3,retrieval_trial,9993.21299999999,basement,scissors,LOCATION,casino,43,OL,A,error,base,wc_event_error
2075959,4,retrieval_trial,4356.47500003688,fox,library,ANIMAL,penguin,41,LA,O,error,fox,wc_event_error
2075959,5,retrieval_trial,9993.179,orange,beaver,OBJECT,hammer,54,AO,L,error,orange,error
2075959,6,retrieval_trial,9993.17200000002,river,pen,LOCATION,nightclub,45,OL,A,error,river,wc_event_error
2075959,7,retrieval_trial,4435.90000004042,backpack,crab,OBJECT,calculator,52,AO,L,error,backpack,wc_event_error
2075959,8,retrieval_trial,5363.17500006407,scissors,mouse,OBJECT,television,53,AO,L,error,scissors,wc_event_error
2075959,9,retrieval_trial,9993.17299999995,NA,lobster,OBJECT,screwdriver,49,AO,L,error,NA,miss
2075959,10,retrieval_trial,6438.0850000307,frog,cinema,ANIMAL,elephant,40,LA,O,error,frog,wc_event_error
2075959,11,retrieval_trial,3426.91999999806,fish,toothbrush,LOCATION,cave,46,OL,A,error,fish,be_cat_error
2075959,12,retrieval_trial,5427.13000008371,car park,binoculars,LOCATION,car park,44,OL,A,1,carpark,1
2075959,13,retrieval_trial,4645.06500004791,fox,lake,ANIMAL,bee,38,LA,O,error,fox,wc_event_error
2075959,14,retrieval_trial,4241.20500008576,backpack,whale,OBJECT,necklace,51,AO,L,error,backpack,wc_event_error
2075959,15,retrieval_trial,8899.25999997649,horse,kitchen,ANIMAL,horse,37,LA,O,1,horse,1
2075959,16,retrieval_trial,2853.73500001151,fox,swimming pool,ANIMAL,rabbit,42,LA,O,error,fox,wc_event_error
2075959,17,retrieval_trial,4851.39500000514,candle,ostrich,OBJECT,flower,50,AO,L,error,candle,wc_event_error
2075959,18,retrieval_trial,4048.74499992002,fox,supermarket,ANIMAL,squirrel,39,LA,O,error,fox,wc_event_error
2075959,19,retrieval_trial,5510.7250000583,forest,jacket,LOCATION,windmill,48,OL,A,error,forest,wc_event_error
2075959,20,retrieval_trial,3831.54499996454,basement,jigsaw,LOCATION,harbour,47,OL,A,error,basement,wc_event_error
2075959,21,retrieval_trial,2811.69000000227,pen,nightclub,OBJECT,pen,45,LO,A,1,pen,1
2075959,22,retrieval_trial,2439.70999994781,kitchen,horse,LOCATION,kitchen,37,AL,O,1,kitchen,1
2075959,23,retrieval_trial,5757.60999997146,bag,cave,OBJECT,toothbrush,46,LO,A,error,bag,error
2075959,24,retrieval_trial,3136.87000004575,cinema,elephant,LOCATION,cinema,40,AL,O,1,cinema,1
2075959,25,retrieval_trial,6294.72999996506,dolphin,flower,ANIMAL,ostrich,50,OA,L,error,dolphin,wc_event_error
2075959,26,retrieval_trial,7270.87500004563,dolphin,television,ANIMAL,mouse,53,OA,L,error,dolphin,wc_event_error
2075959,27,retrieval_trial,9993.22200000007,a,car park,OBJECT,binoculars,44,LO,A,error,a,error
2075959,28,retrieval_trial,4071.25000003725,crab,calculator,ANIMAL,crab,52,OA,L,1,crab,1
2075959,29,retrieval_trial,5335.59499995317,lake,bee,LOCATION,lake,38,AL,O,1,lake,1
2075959,30,retrieval_trial,7748.81500005722,scirrors,harbour,OBJECT,jigsaw,47,LO,A,error,scirrors,wc_event_error
2075959,31,retrieval_trial,6646.65000000969,cave,rabbit,LOCATION,swimming pool,42,AL,O,error,cave,wc_event_error
2075959,32,retrieval_trial,8917.46500006411,lake,squirrel,LOCATION,supermarket,39,AL,O,error,lake,wc_event_error
2075959,33,retrieval_trial,2937.33500002418,scissors,windmill,OBJECT,jacket,48,LO,A,error,scissors,wc_event_error
2075959,34,retrieval_trial,3595.63999995589,fox,screwdriver,ANIMAL,lobster,49,OA,L,error,fox,wc_event_error
2075959,35,retrieval_trial,6711.85000007972,hamster,hammer,ANIMAL,beaver,54,OA,L,error,hamster,wc_event_error
2075959,36,retrieval_trial,7271.61000005435,dice,casino,OBJECT,scissors,43,LO,A,error,dice,wc_event_error
2075959,37,retrieval_trial,9993.18200000003,bec,penguin,LOCATION,library,41,AL,O,error,bec,error
2075959,38,retrieval_trial,2229.35999999754,whale,necklace,ANIMAL,whale,51,OA,L,1,whale,1
2080727,3,retrieval_trial,2230.36000004504,library,glasses,LOCATION,railway station,14,OL,A,error,library,wc_event_error
2080727,4,retrieval_trial,3622.54000001121,ostrich,garden,ANIMAL,goat,11,LA,O,error,ostrich,wc_event_error
2080727,5,retrieval_trial,2066.00999995135,carrot,spider,OBJECT,carrot,5,AO,L,1,carrot,1
2080727,6,retrieval_trial,1917.89000004064,clock,giraffe,OBJECT,clock,6,AO,L,1,clock,1
2080727,7,retrieval_trial,2447.56999996025,kangaroo,treehouse,ANIMAL,kangaroo,7,LA,O,1,kangaroo,1
2080727,8,retrieval_trial,2735.14000000432,rabbit,ball,LOCATION,forest,13,OL,A,error,rabbit,be_cat_error
2080727,9,retrieval_trial,1672.25000000326,hamster,statue,LOCATION,cruise ship,16,OL,A,error,hamster,we_cat_error
2080727,10,retrieval_trial,1796.74999997951,kite,snake,OBJECT,kite,2,AO,L,1,kite,1
2080727,11,retrieval_trial,2899.56500002882,goat,lighthouse,ANIMAL,bear,12,LA,O,error,goat,wc_event_error
2080727,12,retrieval_trial,5518.31999997376,aardvark,waterfall,ANIMAL,zebra,8,LA,O,error,aardvark,wc_event_error
2080727,13,retrieval_trial,1989.17000001529,university,trophy,LOCATION,university,18,OL,A,1,university,1
2080727,14,retrieval_trial,3195.550000004,dragonfly,bank,ANIMAL,butterfly,9,LA,O,error,dragonfly,wc_event_error
2080727,15,retrieval_trial,9983.24400000001,backpack,cow,OBJECT,backpack,4,AO,L,1,backpac,1
2080727,16,retrieval_trial,2415.48000002513,living room,ring,LOCATION,living room,15,OL,A,1,living room,1
2080727,17,retrieval_trial,4391.54500002041,jumping rope,sheep,OBJECT,skipping rope,3,AO,L,1,jumping rope,1
2080727,18,retrieval_trial,2859.49499998242,aquarium,fish,OBJECT,dice,1,AO,L,error,aquarium,be_cat_error
2080727,19,retrieval_trial,3133.72499996331,flamingo,hairdressers,ANIMAL,flamingo,10,LA,O,1,flamingo,1
2080727,20,retrieval_trial,1897.13500003563,gym,chainsaw,LOCATION,gym,17,OL,A,1,gym,1
2080727,21,retrieval_trial,3823.95500002895,ball,cruise ship,OBJECT,statue,16,LO,A,error,ball,wc_event_error
2080727,22,retrieval_trial,3110.8349999995,fish,dice,ANIMAL,fish,1,OA,L,1,fish,1
2080727,23,retrieval_trial,4765.51999995718,torch,forest,OBJECT,ball,13,LO,A,error,torch,wc_event_error
2080727,24,retrieval_trial,3377.52999999793,ring,living room,OBJECT,ring,15,LO,A,1,ring,1
2080727,25,retrieval_trial,2733.97000000114,lighthouse,bear,LOCATION,lighthouse,12,AL,O,1,lighthouse,1
2080727,26,retrieval_trial,6790.16999999294,panda,skipping rope,ANIMAL,sheep,3,OA,L,error,panda,wc_event_error
2080727,27,retrieval_trial,1504.22000000253,snake,kite,ANIMAL,snake,2,OA,L,1,snake,1
2080727,28,retrieval_trial,2026.27500001108,treehouse,kangaroo,LOCATION,treehouse,7,AL,O,1,treehouse,1
2080727,29,retrieval_trial,1790.02000001492,spider,carrot,ANIMAL,spider,5,OA,L,1,spider,1
2080727,30,retrieval_trial,2362.02000000048,waterfall,zebra,LOCATION,waterfall,8,AL,O,1,waterfall,1
2080727,31,retrieval_trial,1919.59000000497,giraffe,clock,ANIMAL,giraffe,6,OA,L,1,giraffe,1
2080727,32,retrieval_trial,2433.57500003185,hairdressers,flamingo,LOCATION,hairdressers,10,AL,O,1,hairdresser,1
2080727,33,retrieval_trial,2476.85999999521,map,railway station,OBJECT,glasses,14,LO,A,error,map,wc_event_error
2080727,34,retrieval_trial,2312.90499999886,trophy,university,OBJECT,trophy,18,LO,A,1,trophy,1
2080727,35,retrieval_trial,6994.2700000247,bank,butterfly,LOCATION,bank,9,AL,O,1,bank,1
2080727,36,retrieval_trial,2173.15499996766,cow,backpack,ANIMAL,cow,4,OA,L,1,cow,1
2080727,37,retrieval_trial,1567.69499997608,garden,goat,LOCATION,garden,11,AL,O,1,garden,1
2080727,38,retrieval_trial,2141.39499998419,chainsaw,gym,OBJECT,chainsaw,17,LO,A,1,chainsaw,1
2080749,3,retrieval_trial,3435.0500000000466,airport,dice,LOCATION,theatre,1,OL,A,error,airport,wc_event_error
2080749,4,retrieval_trial,5451.90499999444,brush,flamingo,OBJECT,box,10,AO,L,error,brush,error
2080749,5,retrieval_trial,7362.194999994244,field,carrot,LOCATION,circus,5,OL,A,error,field,error
2080749,6,retrieval_trial,4297.395000001416,snake,living room,ANIMAL,monkey,15,LA,O,error,snake,wc_event_error
2080749,7,retrieval_trial,7109.525000007125,box,zebra,OBJECT,ice cream,8,AO,L,error,box,wc_event_error
2080749,8,retrieval_trial,4982.084999996005,fox,university,ANIMAL,wolf,18,LA,O,error,fox,wc_event_error
2080749,9,retrieval_trial,7050.44999999518,fish,gym,ANIMAL,badger,17,LA,O,error,fish,wc_event_error
2080749,10,retrieval_trial,5069.094999998924,lion,forest,ANIMAL,chicken,13,LA,O,error,lion,wc_event_error
2080749,11,retrieval_trial,4181.65999998746,theatre,skipping rope,LOCATION,church,3,OL,A,error,theatre,wc_event_error
2080749,12,retrieval_trial,3566.5350000053877,camera,goat,OBJECT,camera,11,AO,L,1,camera,1
2080749,13,retrieval_trial,4564.079999996466,spoon,butterfly,OBJECT,spoon,9,AO,L,1,spoon,1
2080749,14,retrieval_trial,9968.891999999993,box,bear,OBJECT,mug,12,AO,L,error,box,wc_event_error
2080749,15,retrieval_trial,6082.070000004023,coow\,railway station,ANIMAL,pig,14,LA,O,error,coow\,wc_event_error
2080749,16,retrieval_trial,4260.364999994636,mountain,clock,LOCATION,mountain,6,OL,A,1,mountain,1
2080749,17,retrieval_trial,3055.980000004638,classroom,kite,LOCATION,classroom,2,OL,A,1,classroom,1
2080749,18,retrieval_trial,4941.639999990002,dolphin,cruise ship,ANIMAL,hamster,16,LA,O,error,dolphin,wc_event_error
2080749,19,retrieval_trial,8133.399999991525,chair],kangaroo,OBJECT,book,7,AO,L,error,chair],error
2080749,20,retrieval_trial,9969.173999999999,fiedll,backpack,LOCATION,post office,4,OL,A,error,fiedll,error
2080749,21,retrieval_trial,4912.225000007311,bear,mug,ANIMAL,bear,12,OA,L,1,bear,1
2080749,22,retrieval_trial,1962.2550000058254,zebra,ice cream,ANIMAL,zebra,8,OA,L,1,zebra,1
2080749,23,retrieval_trial,9975.405000000028,clivibn,wolf,LOCATION,university,18,AL,O,error,clivibn,error
2080749,24,retrieval_trial,4546.229999992647,classroom,pig,LOCATION,railway station,14,AL,O,error,classroom,wc_event_error
2080749,25,retrieval_trial,3009.5500000024913,skipping rope,church,OBJECT,skipping rope,3,LO,A,1,skippingrope,1
2080749,26,retrieval_trial,6764.544999998179,field,badger,LOCATION,gym,17,AL,O,error,field,error
2080749,27,retrieval_trial,6040.260000008857,camek,book,ANIMAL,kangaroo,7,OA,L,error,camek,wc_event_error
2080749,28,retrieval_trial,5836.375000013504,backpack,post office,OBJECT,backpack,4,LO,A,1,backpack,1
2080749,29,retrieval_trial,5449.355000004289,field,monkey,LOCATION,living room,15,AL,O,error,field,error
2080749,30,retrieval_trial,5161.660000012489,box,theatre,OBJECT,dice,1,LO,A,error,box,wc_event_error
2080749,31,retrieval_trial,7292.939999999362,field,chicken,LOCATION,forest,13,AL,O,error,field,error
2080749,32,retrieval_trial,4213.2349999883445,kite,classroom,OBJECT,kite,2,LO,A,1,kite,1
2080749,33,retrieval_trial,8631.674999996903,tre,mountain,OBJECT,clock,6,LO,A,error,tre,error
2080749,34,retrieval_trial,3670.5499999952735,clown,circus,OBJECT,carrot,5,LO,A,error,clown,error
2080749,35,retrieval_trial,6157.449999998789,gym,hamster,LOCATION,cruise ship,16,AL,O,error,gym,wc_event_error
2080749,36,retrieval_trial,3034.6349999890663,butterfly,spoon,ANIMAL,butterfly,9,OA,L,1,butterfly,1
2080749,37,retrieval_trial,4844.940000009956,meerkat,box,ANIMAL,flamingo,10,OA,L,error,meerkat,wc_event_error
2080749,38,retrieval_trial,2539.4200000009732,goat,camera,ANIMAL,goat,11,OA,L,1,goat,1
2080725,3,retrieval_trial,7522,woods,box,LOCATION,hairdressers,10,OL,A,error,woods,error
2080725,4,retrieval_trial,6554,deer,post office,ANIMAL,cow,4,LA,O,error,deer,error
2080725,5,retrieval_trial,8169,clock,wolf,OBJECT,trophy,18,AO,L,error,clock,wc_event_error
2080725,6,retrieval_trial,5617,forest,mug,LOCATION,lighthouse,12,OL,A,error,forest,wc_event_error
2080725,7,retrieval_trial,2745,statue,hamster,OBJECT,statue,16,AO,L,1,statue,1
2080725,8,retrieval_trial,4447,elephant,circus,ANIMAL,spider,5,LA,O,error,elephant,wc_event_error
2080725,9,retrieval_trial,4654,elephant,theatre,ANIMAL,fish,1,LA,O,error,elephant,wc_event_error
2080725,10,retrieval_trial,2081,giraffe,mountain,ANIMAL,giraffe,6,LA,O,1,giraffe,1
2080725,11,retrieval_trial,5894,museum,spoon,LOCATION,bank,9,OL,A,error,museum,wc_event_error
2080725,12,retrieval_trial,6311,circus,ice cream,LOCATION,waterfall,8,OL,A,error,circus,wc_event_error
2080725,13,retrieval_trial,4995,beach,camera,LOCATION,garden,11,OL,A,error,beach,wc_event_error
2080725,14,retrieval_trial,6298,ball,chicken,OBJECT,ball,13,AO,L,1,ball,1
2080725,15,retrieval_trial,2012,hammer,badger,OBJECT,chainsaw,17,AO,L,error,hammer,wc_event_error
2080725,16,retrieval_trial,4607,dog,classroom,ANIMAL,snake,2,LA,O,error,dog,wc_event_error
2080725,17,retrieval_trial,2532,glasses,pig,OBJECT,glasses,14,AO,L,1,glasses,1
2080725,18,retrieval_trial,4083,hammer,monkey,OBJECT,ring,15,AO,L,error,hammer,wc_event_error
2080725,19,retrieval_trial,6873,beach\,book,LOCATION,treehouse,7,OL,A,error,beach\,wc_event_error
2080725,20,retrieval_trial,5962,cat,church,ANIMAL,sheep,3,LA,O,error,cat,wc_event_error
2080725,21,retrieval_trial,5428,book,treehouse,OBJECT,book,7,LO,A,1,book,1
2080725,22,retrieval_trial,2312,pig,glasses,ANIMAL,pig,14,OA,L,1,pig,1
2080725,23,retrieval_trial,7280,chicken,ball,ANIMAL,chicken,13,OA,L,1,chicken,1
2080725,24,retrieval_trial,1648,wolf,trophy,ANIMAL,wolf,18,OA,L,1,wolf,1
2080725,25,retrieval_trial,7014,comb,hairdressers,OBJECT,box,10,LO,A,error,comb,error
2080725,26,retrieval_trial,4093,vase,bank,OBJECT,spoon,9,LO,A,error,vase,wc_event_error
2080725,27,retrieval_trial,7030,dog,chainsaw,ANIMAL,badger,17,OA,L,error,dog,wc_event_error
2080725,28,retrieval_trial,2038,circus,spider,LOCATION,circus,5,AL,O,1,circus,1
2080725,29,retrieval_trial,2771,classroom,snake,LOCATION,classroom,2,AL,O,1,classroom,1
2080725,30,retrieval_trial,4421,hammer,garden,OBJECT,camera,11,LO,A,error,hammer,wc_event_error
2080725,31,retrieval_trial,1955,church,sheep,LOCATION,church,3,AL,O,1,chruch,1
2080725,32,retrieval_trial,4012,mountain,giraffe,LOCATION,mountain,6,AL,O,1,mountain,1
2080725,33,retrieval_trial,2177,monkey,ring,ANIMAL,monkey,15,OA,L,1,monkey,1
2080725,34,retrieval_trial,2010,hamster,statue,ANIMAL,hamster,16,OA,L,1,hamster,1
2080725,35,retrieval_trial,6350,pool,cow,LOCATION,post office,4,AL,O,error,pool,wc_event_error
2080725,36,retrieval_trial,2550,ice cream,waterfall,OBJECT,ice cream,8,LO,A,1,ice cream,1
2080725,37,retrieval_trial,6644,school,fish,LOCATION,theatre,1,AL,O,error,school,error
2080725,38,retrieval_trial,3421,mug,lighthouse,OBJECT,mug,12,LO,A,1,mug,1
2080747,3,retrieval_trial,4161.21500002919,windmill,lizard,OBJECT,violin,20,AO,L,error,windmill,be_cat_error
2080747,4,retrieval_trial,9980.553,park,umbrella,LOCATION,park,31,OL,A,1,park,1
2080747,5,retrieval_trial,4251.6750000068,bedroom,guitar,LOCATION,bedroom,32,OL,A,1,bedroom,1
2080747,6,retrieval_trial,2365.12500001118,shark,dentists,ANIMAL,tiger,30,LA,O,error,shark,wc_event_error
2080747,7,retrieval_trial,3147.64999999898,giraffe,hat,LOCATION,bus stop,35,OL,A,error,giraffe,be_cat_error
2080747,8,retrieval_trial,2746.78000004496,hippo,river,ANIMAL,camel,28,LA,O,error,hippo,wc_event_error
2080747,9,retrieval_trial,4530.74499999639,necklace,dolphin,OBJECT,wallet,23,AO,L,error,necklace,wc_event_error
2080747,10,retrieval_trial,3847.48499997659,goat,shed,ANIMAL,dragonfly,25,LA,O,error,goat,wc_event_error
2080747,11,retrieval_trial,2170.71999999462,bat,castle,ANIMAL,bat,26,LA,O,1,bat,1
2080747,12,retrieval_trial,4219.67500000028,restaurant,ant,OBJECT,vase,24,AO,L,error,restaurant,be_cat_error
2080747,13,retrieval_trial,5177.16999998083,restaurant,banana,LOCATION,city,36,OL,A,error,retaurant,wc_event_error
2080747,14,retrieval_trial,6102.92000003392,shed,bucket,LOCATION,jail,34,OL,A,error,shed,wc_event_error
2080747,15,retrieval_trial,3250.44999999227,clock,koala,OBJECT,handbag,19,AO,L,error,clock,wc_event_error
2080747,16,retrieval_trial,2720.32500000205,platypus,bowling alley,ANIMAL,platypus,27,LA,O,1,platypus,1
2080747,17,retrieval_trial,3658.28000003239,watch,raccoon,OBJECT,whisk,21,AO,L,error,watch,error
2080747,18,retrieval_trial,6179.6949999989,globe,panda,OBJECT,lamp,22,AO,L,error,globe,error
2080747,19,retrieval_trial,3802.8349999804,jail,keys,LOCATION,hospital,33,OL,A,error,jail,wc_event_error
2080747,20,retrieval_trial,1748.43999999575,reindeer,restaurant,ANIMAL,reindeer,29,LA,O,1,reindeer,1
2080747,21,retrieval_trial,3422.64000000432,crocodile,bus stop,OBJECT,hat,35,LO,A,error,crocodile,we_cat_error
2080747,22,retrieval_trial,3489.21000002883,mountain,camel,LOCATION,river,28,AL,O,error,mountain,wc_event_error
2080747,23,retrieval_trial,1567.35999998637,restaurant,reindeer,LOCATION,restaurant,29,AL,O,1,restaurant,1
2080747,24,retrieval_trial,1593.09999999823,koala,wallet,ANIMAL,dolphin,23,OA,L,error,koala,wc_event_error
2080747,25,retrieval_trial,2664.76999997394,bowling alley,platypus,LOCATION,bowling alley,27,AL,O,1,bowling alley,1
2080747,26,retrieval_trial,3320.10000001173,koala,lamp,ANIMAL,panda,22,OA,L,error,koala,wc_event_error
2080747,27,retrieval_trial,1641.8999999878,koala,handbag,ANIMAL,koala,19,OA,L,1,koala,1
2080747,28,retrieval_trial,2273.25500000734,snake,whisk,ANIMAL,raccoon,21,OA,L,error,snake,wc_event_error
2080747,29,retrieval_trial,2379.76999999955,bucket,jail,OBJECT,bucket,34,LO,A,1,bucket,1
2080747,30,retrieval_trial,1905.21499997703,castle,bat,LOCATION,castle,26,AL,O,1,castle,1
2080747,31,retrieval_trial,3184.35499997577,kite,park,OBJECT,umbrella,31,LO,A,error,kite,wc_event_error
2080747,32,retrieval_trial,2669.17000000831,hospital,tiger,LOCATION,dentists,30,AL,O,error,hospital,wc_event_error
2080747,33,retrieval_trial,3843.65500003332,snake,vase,ANIMAL,ant,24,OA,L,error,snake,wc_event_error
2080747,34,retrieval_trial,3970.13999999035,vase,hospital,OBJECT,keys,33,LO,A,error,vase,wc_event_error
2080747,35,retrieval_trial,2980.51500000292,giraffe,violin,ANIMAL,lizard,20,OA,L,error,giraffe,wc_event_error
2080747,36,retrieval_trial,2884.10500000464,umbrella,city,OBJECT,banana,36,LO,A,error,umbrella,wc_event_error
2080747,37,retrieval_trial,2774.28499999223,hospital,dragonfly,LOCATION,shed,25,AL,O,error,hospital,wc_event_error
2080747,38,retrieval_trial,5474.70500000054,teeth,bedroom,OBJECT,guitar,32,LO,A,error,teeth,error
2080734,3,retrieval_trial,2600,headphones,dragonfly,OBJECT,headphones,25,AO,L,1,headphones,1
2080734,4,retrieval_trial,3513,sock,platypus,OBJECT,sock,27,AO,L,1,sock,1
2080734,5,retrieval_trial,6098,duck,park,ANIMAL,lion,31,LA,O,error,duck,wc_event_error
2080734,6,retrieval_trial,4450,rabbit,jail,ANIMAL,cat,34,LA,O,error,rabbit,wc_event_error
2080734,7,retrieval_trial,7532,handbag,camel,OBJECT,bike,28,AO,L,error,handbag,wc_event_error
2080734,8,retrieval_trial,2948,paintbrush,reindeer,OBJECT,paintbrush,29,AO,L,1,paintbrush,1
2080734,9,retrieval_trial,4184,wolf,hospital,ANIMAL,fox,33,LA,O,error,wolf,wc_event_error
2080734,10,retrieval_trial,8073,bag,tiger,OBJECT,cake,30,AO,L,error,bag,error
2080734,11,retrieval_trial,9983.34,cro,violin,LOCATION,garage,20,OL,A,error,cro,error
2080734,12,retrieval_trial,4880,balcony,wallet,LOCATION,balcony,23,OL,A,1,balcony,1
2080734,13,retrieval_trial,4982,stadium,handbag,LOCATION,stadium,19,OL,A,1,stadium,1
2080734,14,retrieval_trial,7952,bag,bat,OBJECT,bottle,26,AO,L,error,bag,error
2080734,15,retrieval_trial,4421,park,whisk,LOCATION,aquarium,21,OL,A,error,park,wc_event_error
2080734,16,retrieval_trial,2374,lion,city,ANIMAL,frog,36,LA,O,error,lion,wc_event_error
2080734,17,retrieval_trial,2110,crocodile,bus stop,ANIMAL,crocodile,35,LA,O,1,crocodile,1
2080734,18,retrieval_trial,6229,dog,bedroom,ANIMAL,tortoise,32,LA,O,error,dog,wc_event_error
2080734,19,retrieval_trial,4194,cave,lamp,LOCATION,cafe,22,OL,A,error,cave,wc_event_error
2080734,20,retrieval_trial,3640,bakery,vase,LOCATION,bakery,24,OL,A,1,bakery,1
2080734,21,retrieval_trial,7880,supermarket,fox,LOCATION,hospital,33,AL,O,error,supermarket,wc_event_error
2080734,22,retrieval_trial,2987,handbag,stadium,OBJECT,handbag,19,LO,A,1,handbag,1
2080734,23,retrieval_trial,2590,park,lion,LOCATION,park,31,AL,O,1,park,1
2080734,24,retrieval_trial,2475,bus stop,crocodile,LOCATION,bus stop,35,AL,O,1,bus stop,1
2080734,25,retrieval_trial,3778,beach,tortoise,LOCATION,bedroom,32,AL,O,error,beach,wc_event_error
2080734,26,retrieval_trial,2645,headphones,garage,OBJECT,violin,20,LO,A,error,headphones,wc_event_error
2080734,27,retrieval_trial,2055,dragonfly,headphones,ANIMAL,dragonfly,25,OA,L,1,dragonfly,1
2080734,28,retrieval_trial,2064,platypus,sock,ANIMAL,platypus,27,OA,L,1,platypus,1
2080734,29,retrieval_trial,2280,vase,bakery,OBJECT,vase,24,LO,A,1,vase,1
2080734,30,retrieval_trial,3037,camel,bike,ANIMAL,camel,28,OA,L,1,camel,1
2080734,31,retrieval_trial,3797,wallet,balcony,OBJECT,wallet,23,LO,A,1,wallet,1
2080734,32,retrieval_trial,3914,beach,frog,LOCATION,city,36,AL,O,error,beach,wc_event_error
2080734,33,retrieval_trial,3091,whisk,aquarium,OBJECT,whisk,21,LO,A,1,whisk,1
2080734,34,retrieval_trial,5167,bat,bottle,ANIMAL,bat,26,OA,L,1,bat,1
2080734,35,retrieval_trial,5115,horse,paintbrush,ANIMAL,reindeer,29,OA,L,error,horse,wc_event_error
2080734,36,retrieval_trial,2626,jail,cat,LOCATION,jail,34,AL,O,1,jail,1
2080734,37,retrieval_trial,2189,lion,cake,ANIMAL,tiger,30,OA,L,error,lion,wc_event_error
2080734,38,retrieval_trial,4414,binoculars,cafe,OBJECT,lamp,22,LO,A,error,binoculars,wc_event_error
2080722,3,retrieval_trial,3548.55000000042,elephant,cinema,ANIMAL,elephant,40,LA,O,1,elephant,1
2080722,4,retrieval_trial,3789.23000000033,desert,binoculars,LOCATION,car park,44,OL,A,error,desert,error
2080722,5,retrieval_trial,8229.44999999984,street,pen,LOCATION,nightclub,45,OL,A,error,street,error
2080722,6,retrieval_trial,2573.59499999986,shark,lake,ANIMAL,bee,38,LA,O,error,shark,wc_event_error
2080722,7,retrieval_trial,3344.56500000032,flower,ostrich,OBJECT,flower,50,AO,L,1,flower,1
2080722,8,retrieval_trial,6317.32499999998,pencil,crab,OBJECT,calculator,52,AO,L,error,pencil,error
2080722,9,retrieval_trial,8510.92000000062,binoculars,mouse,OBJECT,television,53,AO,L,error,binoculars,wc_event_error
2080722,10,retrieval_trial,7632.72999999934,pen,beaver,OBJECT,hammer,54,AO,L,error,pen,wc_event_error
2080722,11,retrieval_trial,2556.6999999992,penguin,library,ANIMAL,penguin,41,LA,O,1,penguin,1
2080722,12,retrieval_trial,1897.59500000038,screwdriver,lobster,OBJECT,screwdriver,49,AO,L,1,screwdriver,1
2080722,13,retrieval_trial,8463.56999999989,cat,swimming pool,ANIMAL,rabbit,42,LA,O,error,cat,wc_event_error
2080722,14,retrieval_trial,4510.69499999992,rabbit,supermarket,ANIMAL,squirrel,39,LA,O,error,rabbit,wc_event_error
2080722,15,retrieval_trial,5546.88499999975,horn,whale,OBJECT,necklace,51,AO,L,error,horn,error
2080722,16,retrieval_trial,9983.25,me,kitchen,ANIMAL,horse,37,LA,O,error,me,error
2080722,17,retrieval_trial,3466.47500000015,kitten,jigsaw,LOCATION,harbour,47,OL,A,error,kitten,error
2080722,18,retrieval_trial,7134.23000000062,house,jacket,LOCATION,windmill,48,OL,A,error,house,error
2080722,19,retrieval_trial,2913.5400000005,stadium,scissors,LOCATION,casino,43,OL,A,error,stadium,wc_event_error
2080722,20,retrieval_trial,4659.46499999973,supermarket,toothbrush,LOCATION,cave,46,OL,A,error,supermarket,wc_event_error
2080722,21,retrieval_trial,3504.70999999926,map,squirrel,LOCATION,supermarket,39,AL,O,error,map,be_cat_error
2080722,22,retrieval_trial,2096.40500000014,ostrich,flower,ANIMAL,ostrich,50,OA,L,1,ostrich,1
2080722,23,retrieval_trial,3506.58999999997,cow,calculator,ANIMAL,crab,52,OA,L,error,cow,wc_event_error
2080722,24,retrieval_trial,6948.03499999945,spider,windmill,OBJECT,jacket,48,LO,A,error,spider,be_cat_error
2080722,25,retrieval_trial,4196.8600000001,mouse,television,ANIMAL,mouse,53,OA,L,1,mouse,1
2080722,26,retrieval_trial,4350.30499999993,binoculars,harbour,OBJECT,jigsaw,47,LO,A,error,binoculars,wc_event_error
2080722,27,retrieval_trial,2505.17500000028,supermarket,rabbit,LOCATION,swimming pool,42,AL,O,error,supermarket,wc_event_error
2080722,28,retrieval_trial,1261.71499999962,library,penguin,LOCATION,library,41,AL,O,1,library,1
2080722,29,retrieval_trial,2416.47999999986,cinema,elephant,LOCATION,cinema,40,AL,O,1,cinema,1
2080722,30,retrieval_trial,6367.54999999993,lighthouse,cave,OBJECT,toothbrush,46,LO,A,error,light,be_cat_error
2080722,31,retrieval_trial,3137.97999999952,binoculars,casino,OBJECT,scissors,43,LO,A,error,binoculars,wc_event_error
2080722,32,retrieval_trial,1856.78500000085,windmill,horse,LOCATION,kitchen,37,AL,O,error,windmill,wc_event_error
2080722,33,retrieval_trial,2214.95499999949,airport,bee,LOCATION,lake,38,AL,O,error,airport,wc_event_error
2080722,34,retrieval_trial,7400.58500000031,bee,hammer,ANIMAL,beaver,54,OA,L,error,bee,wc_event_error
2080722,35,retrieval_trial,6401.97499999974,pencil,car park,OBJECT,binoculars,44,LO,A,error,pencil,error
2080722,36,retrieval_trial,1935.4800000001,koala,necklace,ANIMAL,whale,51,OA,L,error,koala,wc_event_error
2080722,37,retrieval_trial,1751.38500000047,lobster,screwdriver,ANIMAL,lobster,49,OA,L,1,lobster,1
2080722,38,retrieval_trial,6572.87499999988,mouse,nightclub,OBJECT,pen,45,LO,A,error,mouse,be_cat_error
2080715,3,retrieval_trial,2737.96999990009,spoon,butterfly,OBJECT,spoon,9,AO,L,1,spoon,1
2080715,4,retrieval_trial,9145.99000010639,cat,university,ANIMAL,wolf,18,LA,O,error,cat,wc_event_error
2080715,5,retrieval_trial,8292.279999936,hamster,cruise ship,ANIMAL,hamster,16,LA,O,1,hamster,1
2080715,6,retrieval_trial,3200.78499987721,book,kangaroo,OBJECT,book,7,AO,L,1,book,1
2080715,7,retrieval_trial,9176.40500003472,chicken,forest,ANIMAL,chicken,13,LA,O,1,chicken,1
2080715,8,retrieval_trial,6928.1750000082,school,kite,LOCATION,classroom,2,OL,A,1,school,1
2080715,9,retrieval_trial,2636.00499997847,post office,backpack,LOCATION,post office,4,OL,A,1,postoffice,1
2080715,10,retrieval_trial,2508.04999982938,monkey,living room,ANIMAL,monkey,15,LA,O,1,moneky,1
2080715,11,retrieval_trial,3566.21500011533,box,flamingo,OBJECT,box,10,AO,L,1,box,1
2080715,12,retrieval_trial,3267.45499996468,mountain,clock,LOCATION,mountain,6,OL,A,1,mountain,1
2080715,13,retrieval_trial,2318.54499992914,ice cream,zebra,OBJECT,ice cream,8,AO,L,1,ice cream,1
2080715,14,retrieval_trial,5692.55500007421,cave,dice,LOCATION,theatre,1,OL,A,error,cave,wc_event_error
2080715,15,retrieval_trial,6484.35499984771,car park,skipping rope,LOCATION,church,3,OL,A,error,car park,wc_event_error
2080715,16,retrieval_trial,5784.66500015929,pig,railway station,ANIMAL,pig,14,LA,O,1,pig,1
2080715,17,retrieval_trial,4411.91500006244,circus,carrot,LOCATION,circus,5,OL,A,1,circus,1
2080715,18,retrieval_trial,3865.87999993935,badger,gym,ANIMAL,badger,17,LA,O,1,badger,1
2080715,19,retrieval_trial,4705.84000018425,camera,goat,OBJECT,camera,11,AO,L,1,camera,1
2080715,20,retrieval_trial,5061.82499998249,mug,bear,OBJECT,mug,12,AO,L,1,mug,1
2080715,21,retrieval_trial,1884.34999994934,kangeroo,book,ANIMAL,kangaroo,7,OA,L,1,kangeroo,1
2080715,22,retrieval_trial,8398.98499986157,chainsaw,badger,LOCATION,gym,17,AL,O,error,chainsaw,we_cat_error
2080715,23,retrieval_trial,2366.66499986313,carrot,circus,OBJECT,carrot,5,LO,A,1,carrot,1
2080715,24,retrieval_trial,7803.19999996573,cruise ship,hamster,LOCATION,cruise ship,16,AL,O,1,cruise ship,1
2080715,25,retrieval_trial,9987.0780000001,skipping rope,church,OBJECT,skipping rope,3,LO,A,1,sipping rope,1
2080715,26,retrieval_trial,6919.14000012912,backpack,post office,OBJECT,backpack,4,LO,A,1,backpack,1
2080715,27,retrieval_trial,4030.38000012748,clock,mountain,OBJECT,clock,6,LO,A,1,clock,1
2080715,28,retrieval_trial,3693.22499982081,railway station,pig,LOCATION,railway station,14,AL,O,1,railway station,1
2080715,29,retrieval_trial,7160.75000003912,goat,camera,ANIMAL,goat,11,OA,L,1,gaot,1
2080715,30,retrieval_trial,9985.98199999996,jigsaw,theatre,OBJECT,dice,1,LO,A,error,jigsaw,wc_event_error
2080715,31,retrieval_trial,3697.21999997273,living room,monkey,LOCATION,living room,15,AL,O,1,living room,1
2080715,32,retrieval_trial,3577.06500007771,flamingo,box,ANIMAL,flamingo,10,OA,L,1,flamingo,1
2080715,33,retrieval_trial,5338.86999986134,university,wolf,LOCATION,university,18,AL,O,1,university,1
2080715,34,retrieval_trial,6978.48000004888,zebra,ice cream,ANIMAL,zebra,8,OA,L,1,zebra,1
2080715,35,retrieval_trial,7647.09000010043,bear,mug,ANIMAL,bear,12,OA,L,1,bear,1
2080715,36,retrieval_trial,8137.96999980696,paintbrush,classroom,OBJECT,kite,2,LO,A,error,painbrush,wc_event_error
2080715,37,retrieval_trial,7855.83500005305,butterfly,spoon,ANIMAL,butterfly,9,OA,L,1,butterfly,1
2080715,38,retrieval_trial,6944.75500006229,forest,chicken,LOCATION,forest,13,AL,O,1,forest,1
2080726,3,retrieval_trial,6472.39999999874,zoo,clock,LOCATION,mountain,6,OL,A,error,zoo,error
2080726,4,retrieval_trial,4261.78500000242,ice cream,zebra,OBJECT,ice cream,8,AO,L,1,icecream,1
2080726,5,retrieval_trial,3399.73499999905,spoon,butterfly,OBJECT,spoon,9,AO,L,1,spoon,1
2080726,6,retrieval_trial,2689.8000000001002,monkey,living room,ANIMAL,monkey,15,LA,O,1,monkey,1
2080726,7,retrieval_trial,3979.05000000173,bear,dice,LOCATION,theatre,1,OL,A,error,bear,be_cat_error
2080726,8,retrieval_trial,2136.5850000002,zebra,cruise ship,ANIMAL,hamster,16,LA,O,error,zebra,wc_event_error
2080726,9,retrieval_trial,2949.47500000126,clock,flamingo,OBJECT,box,10,AO,L,error,clock,wc_event_error
2080726,10,retrieval_trial,9173.76499999955,spoon,goat,OBJECT,camera,11,AO,L,error,spoon,wc_event_error
2080726,11,retrieval_trial,2906.55500000139,garden,kite,LOCATION,classroom,2,OL,A,error,garden,wc_event_error
2080726,12,retrieval_trial,5529.51999999641,shed,backpack,LOCATION,post office,4,OL,A,error,shed,wc_event_error
2080726,13,retrieval_trial,3376.86500000564,hat,bear,OBJECT,mug,12,AO,L,error,hat,wc_event_error
2080726,14,retrieval_trial,4377.78000000253,hat,kangaroo,OBJECT,book,7,AO,L,error,hat,wc_event_error
2080726,15,retrieval_trial,2422.59500000364,shed,carrot,LOCATION,circus,5,OL,A,error,shed,wc_event_error
2080726,16,retrieval_trial,2605.63999999431,bear,forest,ANIMAL,chicken,13,LA,O,error,bear,wc_event_error
2080726,17,retrieval_trial,3255.21499999741,bear,gym,ANIMAL,badger,17,LA,O,error,bear,wc_event_error
2080726,18,retrieval_trial,4750.11499999528,bear,skipping rope,LOCATION,church,3,OL,A,error,bear,be_cat_error
2080726,19,retrieval_trial,3554.84499999875,bee,railway station,ANIMAL,pig,14,LA,O,error,bee,wc_event_error
2080726,20,retrieval_trial,2578.7199999977,bee,university,ANIMAL,wolf,18,LA,O,error,bee,wc_event_error
2080726,21,retrieval_trial,6309.18999999994,spoon,circus,OBJECT,carrot,5,LO,A,error,spoon,wc_event_error
2080726,22,retrieval_trial,2850.23499999812,backpack,post office,OBJECT,backpack,4,LO,A,1,backpack,1
2080726,23,retrieval_trial,5413.9300000025,living room,monkey,LOCATION,living room,15,AL,O,1,livingroom,1
2080726,24,retrieval_trial,1891.02500000445,hippo,camera,ANIMAL,goat,11,OA,L,error,hippo,wc_event_error
2080726,25,retrieval_trial,4984.74500000151,bear,ice cream,ANIMAL,zebra,8,OA,L,error,bear,wc_event_error
2080726,26,retrieval_trial,4801.24500000244,dice,theatre,OBJECT,dice,1,LO,A,1,dice,1
2080726,27,retrieval_trial,2687.71499999997,forest,chicken,LOCATION,forest,13,AL,O,1,forest,1
2080726,28,retrieval_trial,4036.71500000195,crocodile,classroom,OBJECT,kite,2,LO,A,error,crocodile,be_cat_error
2080726,29,retrieval_trial,2879.75500000175,clock,mountain,OBJECT,clock,6,LO,A,1,clock,1
2080726,30,retrieval_trial,6646.48000000301,hippo,spoon,ANIMAL,butterfly,9,OA,L,error,hippo,wc_event_error
2080726,31,retrieval_trial,1739.4399999975,flamingo,box,ANIMAL,flamingo,10,OA,L,1,flamingo,1
2080726,32,retrieval_trial,1796.66499999445,university,wolf,LOCATION,university,18,AL,O,1,university,1
2080726,33,retrieval_trial,3667.25500000035,garage,hamster,LOCATION,cruise ship,16,AL,O,error,garage,wc_event_error
2080726,34,retrieval_trial,5311.43999999762,woods,pig,LOCATION,railway station,14,AL,O,error,woods,error
2080726,35,retrieval_trial,3489.18499999866,bear,book,ANIMAL,kangaroo,7,OA,L,error,bear,wc_event_error
2080726,36,retrieval_trial,3005.85999999742,aquarium,badger,LOCATION,gym,17,AL,O,error,aquarium,wc_event_error
2080726,37,retrieval_trial,4182.54000000155,spoon,church,OBJECT,skipping rope,3,LO,A,error,spoon,wc_event_error
2080726,38,retrieval_trial,7616.70500000031,bee,mug,ANIMAL,bear,12,OA,L,error,bee,wc_event_error
2080721,3,retrieval_trial,2745.92999997549,cafe,spoon,LOCATION,bank,9,OL,A,error,cafe,wc_event_error
2080721,4,retrieval_trial,2744.11999993026,theatre,mug,LOCATION,lighthouse,12,OL,A,error,theatre,wc_event_error
2080721,5,retrieval_trial,4523.88499991503,giraffe,post office,ANIMAL,cow,4,LA,O,error,giraffe,wc_event_error
2080721,6,retrieval_trial,1496.62500002887,statue,hamster,OBJECT,statue,16,AO,L,1,statue,1
2080721,7,retrieval_trial,4384.33000002988,lion,mountain,ANIMAL,giraffe,6,LA,O,error,lion,wc_event_error
2080721,8,retrieval_trial,3883.45999992453,platypus,circus,ANIMAL,spider,5,LA,O,error,platypus,wc_event_error
2080721,9,retrieval_trial,2821.67500001378,spoon,chicken,OBJECT,ball,13,AO,L,error,spoon,wc_event_error
2080721,10,retrieval_trial,4272.93999993708,trophy,wolf,OBJECT,trophy,18,AO,L,1,trophy,1
2080721,11,retrieval_trial,6628.5950000165,dog,classroom,ANIMAL,snake,2,LA,O,error,dog,wc_event_error
2080721,12,retrieval_trial,5683.33000002895,horse,theatre,ANIMAL,fish,1,LA,O,error,horse,wc_event_error
2080721,13,retrieval_trial,3071.409999975,ring,monkey,OBJECT,ring,15,AO,L,1,ring,1
2080721,14,retrieval_trial,5144.33000003919,store,box,LOCATION,hairdressers,10,OL,A,error,store,error
2080721,15,retrieval_trial,5843.91000005417,school,book,LOCATION,treehouse,7,OL,A,error,school,error
2080721,16,retrieval_trial,5252.72000010591,dress,badger,OBJECT,chainsaw,17,AO,L,error,dress,error
2080721,17,retrieval_trial,4263.84999998845,school,ice cream,LOCATION,waterfall,8,OL,A,error,school,error
2080721,18,retrieval_trial,4730.06500001065,church,camera,LOCATION,garden,11,OL,A,error,church,wc_event_error
2080721,19,retrieval_trial,6350.55999993347,glasses,pig,OBJECT,glasses,14,AO,L,1,glasses,1
2080721,20,retrieval_trial,5598.8499999512,bird,church,ANIMAL,sheep,3,LA,O,error,bird,error
2080721,21,retrieval_trial,2464.68500001356,lion,glasses,ANIMAL,pig,14,OA,L,error,lion,wc_event_error
2080721,22,retrieval_trial,9982.11699999997,gals,garden,OBJECT,camera,11,LO,A,error,gals,error
2080721,23,retrieval_trial,4677.38499992993,school,spider,LOCATION,circus,5,AL,O,error,school,error
2080721,24,retrieval_trial,6769.13999998942,pig,chainsaw,ANIMAL,badger,17,OA,L,error,pig,wc_event_error
2080721,25,retrieval_trial,1948.94500006922,book,treehouse,OBJECT,book,7,LO,A,1,book,1
2080721,26,retrieval_trial,1678.31500002649,wolf,trophy,ANIMAL,wolf,18,OA,L,1,wolf,1
2080721,27,retrieval_trial,2413.37500000373,chicken,ball,ANIMAL,chicken,13,OA,L,1,chicken,1
2080721,28,retrieval_trial,4004.07000002451,school,cow,LOCATION,post office,4,AL,O,error,school,error
2080721,29,retrieval_trial,1513.92500009388,church,sheep,LOCATION,church,3,AL,O,1,church,1
2080721,30,retrieval_trial,5184.26000000909,cafe,snake,LOCATION,classroom,2,AL,O,error,cafe,wc_event_error
2080721,31,retrieval_trial,4740.74999999721,monkey,ring,ANIMAL,monkey,15,OA,L,1,monkey,1
2080721,32,retrieval_trial,2096.47500002757,circus,giraffe,LOCATION,mountain,6,AL,O,error,circus,wc_event_error
2080721,33,retrieval_trial,4984.62999996264,chainsaw,waterfall,OBJECT,ice cream,8,LO,A,error,chainsaw,wc_event_error
2080721,34,retrieval_trial,1525.99000011105,box,hairdressers,OBJECT,box,10,LO,A,1,box,1
2080721,35,retrieval_trial,4942.72499997169,squirrel,statue,ANIMAL,hamster,16,OA,L,error,squirrel,wc_event_error
2080721,36,retrieval_trial,6198.529999936,store,fish,LOCATION,theatre,1,AL,O,error,store,error
2080721,37,retrieval_trial,3251.74500001594,spoon,bank,OBJECT,spoon,9,LO,A,1,spoon,1
2080721,38,retrieval_trial,5998.14999999944,lamp,lighthouse,OBJECT,mug,12,LO,A,error,lamp,wc_event_error
2080812,3,retrieval_trial,3818.5450000019,time,koala,OBJECT,handbag,19,AO,L,error,time,error
2080812,4,retrieval_trial,2731.89500000444,snake,river,ANIMAL,camel,28,LA,O,error,snake,wc_event_error
2080812,5,retrieval_trial,3143.04500000435,aardvark,restaurant,ANIMAL,reindeer,29,LA,O,error,aardvark,wc_event_error
2080812,6,retrieval_trial,2688.4449999925,lion,umbrella,LOCATION,park,31,OL,A,error,lion,we_cat_error
2080812,7,retrieval_trial,9976.55800000002,NA,dentists,ANIMAL,tiger,30,LA,O,error,NA,miss
